# Wavelength(Î¼m) Extinction_cofficient
0.38462	1.0013E-6
0.38739	1.0238E-6
0.39018	1.0469E-6
0.39299	1.0705E-6
0.39582	1.0946E-6
0.39867	1.1192E-6
0.40154	1.1444E-6
0.40443	1.1702E-6
0.40735	1.1965E-6
0.41028	1.2234E-6
0.41324	1.2508E-6
0.41621	1.2789E-6
0.41921	1.3076E-6
0.42223	1.337E-6
0.42527	1.367E-6
0.42833	1.3976E-6
0.43142	1.4289E-6
0.43453	1.461E-6
0.43766	1.4937E-6
0.44081	1.5271E-6
0.44398	1.5613E-6
0.44718	1.5962E-6
0.4504	1.6319E-6
0.45365	1.6684E-6
0.45692	1.7057E-6
0.46021	1.7438E-6
0.46352	1.7828E-6
0.46686	1.8226E-6
0.47022	1.8633E-6
0.47361	1.9048E-6
0.47702	1.9473E-6
0.48046	1.9908E-6
0.48392	2.0351E-6
0.4874	2.0805E-6
0.49092	2.1269E-6
0.49445	2.1742E-6
0.49801	2.2227E-6
0.5016	2.2721E-6
0.50521	2.3227E-6
0.50885	2.3744E-6
0.51252	2.4272E-6
0.51621	2.4812E-6
0.51993	2.5363E-6
0.52367	2.5927E-6
0.52745	2.6503E-6
0.53124	2.7092E-6
0.53507	2.7693E-6
0.53893	2.8308E-6
0.54281	2.8937E-6
0.54672	2.9579E-6
0.55066	3.0235E-6
0.55462	3.0906E-6
0.55862	3.1591E-6
0.56264	3.2292E-6
0.56669	3.3007E-6
0.57078	3.3739E-6
0.57489	3.4486E-6
0.57903	3.525E-6
0.5832	3.6031E-6
0.5874	3.6829E-6
0.59163	3.7644E-6
0.59589	3.8477E-6
0.60018	3.9329E-6
0.60451	4.0199E-6
0.60886	4.1088E-6
0.61325	4.1997E-6
0.61766	4.2926E-6
0.62211	4.3875E-6
0.62659	4.4844E-6
0.63111	4.5835E-6
0.63565	4.6848E-6
0.64023	4.7883E-6
0.64484	4.8941E-6
0.64949	5.0022E-6
0.65417	5.1126E-6
0.65888	5.2255E-6
0.66363	5.3408E-6
0.66841	5.4587E-6
0.67322	5.5792E-6
0.67807	5.7022E-6
0.68295	5.828E-6
0.68787	5.9566E-6
0.69283	6.0879E-6
0.69782	6.2222E-6
0.70285	6.3594E-6
0.70791	6.4995E-6
0.71301	6.6428E-6
0.71814	6.7892E-6
0.72332	6.9388E-6
0.72853	7.0916E-6
0.73377	7.2479E-6
0.73906	7.4075E-6
0.74438	7.5706E-6
0.74974	7.7373E-6
0.75514	7.9077E-6
0.76058	8.0818E-6
0.76606	8.2597E-6
0.77158	8.4415E-6
0.77714	8.6273E-6
0.78274	8.8171E-6
0.78837	9.0111E-6
0.79405	9.2094E-6
0.79977	9.412E-6
0.80553	9.619E-6
0.81134	9.8305E-6
0.81718	1.0047E-5
0.82307	1.0268E-5
0.829	1.0493E-5
0.83497	1.0724E-5
0.84098	1.096E-5
0.84704	1.1201E-5
0.85314	1.1447E-5
0.85929	1.1699E-5
0.86547	1.1956E-5
0.87171	1.2218E-5
0.87799	1.2487E-5
0.88431	1.2761E-5
0.89068	1.3042E-5
0.8971	1.3328E-5
0.90356	1.3621E-5
0.91007	1.392E-5
0.91662	1.4226E-5
0.92323	1.4538E-5
0.92988	1.4857E-5
0.93657	1.5184E-5
0.94332	1.5517E-5
0.95012	1.5858E-5
0.95696	1.6206E-5
0.96385	1.6562E-5
0.97079	1.6925E-5
0.97779	1.7297E-5
0.98483	1.7676E-5
0.99192	1.8064E-5
0.99907	1.8461E-5
1.0063	1.8866E-5
1.0135	1.928E-5
1.0208	1.9703E-5
1.0282	2.0136E-5
1.0356	2.0577E-5
1.043	2.1029E-5
1.0505	2.149E-5
1.0581	2.1962E-5
1.0657	2.2444E-5
1.0734	2.2936E-5
1.0811	2.3439E-5
1.0889	2.3954E-5
1.0968	2.4479E-5
1.1047	2.5016E-5
1.1126	2.5565E-5
1.1206	2.6126E-5
1.1287	2.6699E-5
1.1368	2.7285E-5
1.145	2.7883E-5
1.1533	2.8495E-5
1.1616	2.912E-5
1.17	2.9758E-5
1.1784	3.0411E-5
1.1869	3.1078E-5
1.1954	3.176E-5
1.204	3.2457E-5
1.2127	3.3168E-5
1.2214	3.3896E-5
1.2302	3.4639E-5
1.2391	3.5399E-5
1.248	3.6176E-5
1.257	3.6969E-5
1.2661	3.778E-5
1.2752	3.8609E-5
1.2844	3.9456E-5
1.2936	4.0321E-5
1.3029	4.1205E-5
1.3123	4.2109E-5
1.3218	4.3033E-5
1.3313	4.3977E-5
1.3409	4.4942E-5
1.3506	4.5927E-5
1.3603	4.6935E-5
1.3701	4.7965E-5
1.38	4.9017E-5
1.3899	5.0092E-5
1.3999	5.1191E-5
1.41	5.2314E-5
1.4201	5.3462E-5
1.4304	5.4635E-5
1.4407	5.5834E-5
1.4511	5.7059E-5
1.4615	5.8311E-5
1.472	5.9591E-5
1.4826	6.0899E-5
1.4933	6.2235E-5
1.5041	6.3601E-5
1.5149	6.4997E-5
1.5258	6.6424E-5
1.5368	6.7882E-5
1.5479	6.9372E-5
1.559	7.0895E-5
1.5703	7.2452E-5
1.5816	7.4042E-5
1.593	7.5668E-5
1.6044	7.733E-5
1.616	7.9028E-5
1.6276	8.0763E-5
1.6394	8.2537E-5
1.6512	8.435E-5
1.6631	8.6203E-5
1.675	8.8096E-5
1.6871	9.0032E-5
1.6993	9.201E-5
1.7115	9.4031E-5
1.7238	9.6098E-5
1.7362	9.8209E-5
1.7487	1.0037E-4
1.7613	1.0257E-4
1.774	1.0483E-4
1.7868	1.0713E-4
1.7997	1.0949E-4
1.8126	1.119E-4
1.8257	1.1436E-4
1.8388	1.1687E-4
1.8521	1.1944E-4
1.8654	1.2207E-4
1.8789	1.2475E-4
1.8924	1.275E-4
1.906	1.303E-4
1.9198	1.3317E-4
1.9336	1.361E-4
1.9475	1.391E-4
1.9615	1.4216E-4
1.9757	1.4529E-4
1.9899	1.4849E-4
2.0042	1.5176E-4
2.0187	1.551E-4
2.0332	1.5852E-4
2.0479	1.6201E-4
2.0626	1.6558E-4
2.0775	1.6923E-4
2.0924	1.7296E-4
2.1075	1.7677E-4
2.1227	1.8067E-4
2.138	1.8465E-4
2.1534	1.8872E-4
2.1689	1.9289E-4
2.1845	1.9714E-4
2.2003	2.0149E-4
2.2161	2.0594E-4
2.2321	2.1048E-4
2.2481	2.1513E-4
2.2643	2.1988E-4
2.2806	2.2473E-4
2.2971	2.297E-4
2.3136	2.3477E-4
2.3303	2.3996E-4
2.3471	2.4526E-4
2.364	2.5068E-4
2.381	2.5622E-4
2.3982	2.6189E-4
2.4154	2.6768E-4
2.4328	2.736E-4
2.4504	2.7965E-4
2.468	2.8584E-4
2.4858	2.9217E-4
2.5037	2.9864E-4
2.5217	3.0525E-4
2.5399	3.1201E-4
2.5582	3.1892E-4
2.5766	3.2599E-4
2.5952	3.3321E-4
2.6139	3.406E-4
2.6327	3.4815E-4
2.6516	3.5588E-4
2.6707	3.6377E-4
2.69	3.7184E-4
2.7094	3.801E-4
2.7289	3.8854E-4
2.7485	3.9717E-4
2.7683	4.0599E-4
2.7883	4.1501E-4
2.8084	4.2424E-4
2.8286	4.3367E-4
2.849	4.4331E-4
2.8695	4.5318E-4
2.8902	4.6326E-4
2.911	4.7357E-4
2.9319	4.8412E-4
2.9531	4.949E-4
2.9743	5.0593E-4
2.9958	5.1721E-4
3.0173	5.2874E-4
3.0391	5.4053E-4
3.061	5.5259E-4
3.083	5.6493E-4
3.1052	5.7754E-4
3.1276	5.9044E-4
3.1501	6.0363E-4
3.1728	6.1713E-4
3.1957	6.3093E-4
3.2187	6.4504E-4
3.2419	6.5947E-4
3.2652	6.7424E-4
3.2887	6.8934E-4
3.3124	7.0478E-4
3.3363	7.2058E-4
3.3603	7.3674E-4
3.3845	7.5326E-4
3.4089	7.7017E-4
3.4334	7.8746E-4
3.4582	8.0515E-4
3.4831	8.2325E-4
3.5082	8.4176E-4
3.5334	8.6069E-4
3.5589	8.8006E-4
3.5845	8.9987E-4
3.6104	9.2015E-4
3.6364	9.4088E-4
3.6626	9.621E-4
3.6889	9.8381E-4
3.7155	0.00101
3.7423	0.00103
3.7692	0.00105
3.7964	0.00108
3.8237	0.0011
3.8513	0.00112
3.879	0.00115
3.9069	0.00118
3.9351	0.0012
3.9634	0.00123
3.992	0.00126
4.0207	0.00129
4.0497	0.00132
4.0789	0.00135
4.1082	0.00138
4.1378	0.00141
4.1676	0.00144
4.1977	0.00147
4.2279	0.00151
4.2584	0.00154
4.289	0.00158
4.3199	0.00161
4.351	0.00165
4.3824	0.00169
4.4139	0.00173
4.4457	0.00177
4.4778	0.00181
4.51	0.00185
4.5425	0.00189
4.5752	0.00193
4.6082	0.00198
4.6414	0.00202
4.6748	0.00207
4.7085	0.00212
4.7424	0.00217
4.7766	0.00222
4.811	0.00227
4.8456	0.00232
4.8805	0.00238
4.9157	0.00243
4.9511	0.00249
4.9867	0.00254
5.0227	0.0026
5.0588	0.00266
5.0953	0.00273
5.132	0.00279
5.169	0.00286
5.2062	0.00292
5.2437	0.00299
5.2815	0.00306
5.3195	0.00313
5.3578	0.00321
5.3964	0.00328
5.4353	0.00336
5.4744	0.00344
5.5139	0.00352
5.5536	0.0036
5.5936	0.00369
5.6339	0.00378
5.6745	0.00387
5.7153	0.00396
5.7565	0.00405
5.798	0.00415
5.8397	0.00425
5.8818	0.00435
5.9242	0.00446
5.9668	0.00456
6.0098	0.00467
6.0531	0.00478
6.0967	0.0049
6.1406	0.00502
6.1848	0.00514
6.2294	0.00526
6.2743	0.00539
6.3195	0.00552
6.365	0.00566
6.4108	0.0058
6.457	0.00594
6.5035	0.00608
6.5504	0.00623
6.5975	0.00639
6.6451	0.00654
6.6929	0.00671
6.7411	0.00687
6.7897	0.00704
6.8386	0.00722
6.8879	0.0074
6.9375	0.00758
6.9875	0.00777
7.0378	0.00797
7.0885	0.00817
7.1395	0.00837
7.191	0.00859
7.2428	0.0088
7.2949	0.00903
7.3475	0.00926
7.4004	0.00949
7.4537	0.00974
7.5074	0.00999
7.5615	0.01024
7.6159	0.01051
7.6708	0.01078
7.7261	0.01106
7.7817	0.01135
7.8378	0.01164
7.8942	0.01195
7.9511	0.01226
8.0084	0.01259
8.066	0.01292
8.1241	0.01326
8.1827	0.01362
8.2416	0.01398
8.301	0.01436
8.3608	0.01474
8.421	0.01514
8.4816	0.01555
8.5427	0.01598
8.6043	0.01641
8.6662	0.01686
8.7287	0.01733
8.7915	0.01781
8.8549	0.0183
8.9186	0.01881
8.9829	0.01934
9.0476	0.01989
9.1128	0.02045
9.1784	0.02104
9.2445	0.02164
9.3111	0.02226
9.3782	0.02291
9.4457	0.02357
9.5138	0.02426
9.5823	0.02498
9.6513	0.02571
9.7208	0.02648
9.7909	0.02727
9.8614	0.0281
9.9324	0.02895
10.004	0.02983
10.076	0.03075
10.149	0.0317
10.222	0.03269
10.295	0.03372
10.369	0.03479
10.444	0.0359
10.519	0.03705
10.595	0.03825
10.672	0.0395
10.748	0.04081
10.826	0.04217
10.904	0.04358
10.982	0.04506
11.061	0.04661
11.141	0.04822
11.221	0.04991
11.302	0.05167
11.384	0.05352
11.466	0.05546
11.548	0.05749
11.631	0.05963
11.715	0.06187
11.8	0.06422
11.885	0.06671
11.97	0.06932
12.056	0.07208
12.143	0.075
12.231	0.07809
12.319	0.08135
12.407	0.08482
12.497	0.0885
12.587	0.09242
12.678	0.09661
12.769	0.10107
12.861	0.10585
12.953	0.11098
13.047	0.1165
13.141	0.12245
13.235	0.12888
13.331	0.13586
13.427	0.14346
13.523	0.15176
13.621	0.16087
13.719	0.17091
13.818	0.18203
13.917	0.1944
14.018	0.20826
14.119	0.22387
14.22	0.24157
14.323	0.26177
14.426	0.28495
14.53	0.31169
14.634	0.34262
14.74	0.37834
14.846	0.41931
14.953	0.46567
15.061	0.51711
15.169	0.57287
15.278	0.63196
15.388	0.69342
15.499	0.75651
15.611	0.82079
15.723	0.8861
15.837	0.95249
15.951	1.0202
16.066	1.0894
16.181	1.1604
16.298	1.2326
16.415	1.3037
16.534	1.367
16.653	1.4075
16.773	1.4067
16.893	1.3719
17.015	1.3449
17.138	1.3538
17.261	1.3941
17.385	1.4519
17.511	1.5177
17.637	1.5868
17.764	1.6573
17.892	1.7284
18.021	1.7997
18.15	1.8712
18.281	1.9426
18.413	2.0134
18.546	2.0831
18.679	2.1503
18.814	2.2134
18.949	2.2697
19.086	2.3159
19.223	2.3478
19.362	2.3607
19.501	2.351
19.642	2.3174
19.783	2.2625
19.926	2.193
20.069	2.1184
20.214	2.049
20.359	1.9928
20.506	1.9553
20.654	1.9387
20.802	1.9431
20.952	1.9666
21.103	2.0067
21.255	2.0605
21.408	2.125
21.562	2.1976
21.718	2.2765
21.874	2.3599
22.032	2.4465
22.19	2.5355
22.35	2.6261
22.511	2.7175
22.673	2.809
22.837	2.9
23.001	2.9892
23.167	3.0756
23.334	3.1574
23.502	3.2324
23.671	3.2983
23.842	3.3519
24.013	3.39
24.186	3.4095
24.361	3.4078
24.536	3.3838
24.713	3.3385
24.891	3.275
25.07	3.1987
25.251	3.1164
25.433	3.0353
25.616	2.9618
25.8	2.901
25.986	2.8565
26.173	2.8299
26.362	2.8217
26.552	2.8309
26.743	2.8558
26.936	2.8938
27.13	2.9422
27.325	2.9978
27.522	3.0572
27.72	3.1171
27.92	3.174
28.121	3.2245
28.323	3.2654
28.527	3.2935
28.733	3.306
28.94	3.3006
29.148	3.2758
29.358	3.2309
29.57	3.1664
29.783	3.084
29.997	2.9861
30.213	2.8761
30.431	2.7577
30.65	2.6347
30.871	2.5105
31.093	2.3882
31.317	2.2702
31.543	2.1585
31.77	2.0541
31.999	1.9581
32.229	1.8707
32.462	1.7923
32.695	1.7227
32.931	1.6619
33.168	1.6096
33.407	1.5657
33.648	1.53
33.89	1.5022
34.134	1.4823
34.38	1.47
34.628	1.4654
34.877	1.4682
35.128	1.4785
35.381	1.496
35.636	1.5205
35.893	1.5515
36.151	1.5884
36.412	1.6302
36.674	1.6756
36.938	1.7228
37.204	1.7696
37.472	1.8136
37.742	1.8519
38.014	1.8818
38.288	1.9007
38.564	1.9063
38.842	1.8975
39.121	1.8737
39.403	1.8356
39.687	1.7848
39.973	1.7237
40.261	1.6548
40.551	1.581
40.843	1.5049
41.137	1.4287
41.433	1.3542
41.732	1.2826
42.032	1.2148
42.335	1.1512
42.64	1.0921
42.947	1.0375
43.257	0.98727
43.568	0.94115
43.882	0.89892
44.198	0.86028
44.516	0.82494
44.837	0.79261
45.16	0.76303
45.485	0.73594
45.813	0.7111
46.143	0.6883
46.475	0.66734
46.81	0.64806
47.147	0.63028
47.487	0.61387
47.829	0.5987
48.174	0.58466
48.521	0.57163
48.87	0.55953
49.222	0.54828
49.577	0.53779
49.934	0.52801
50.293	0.51886
50.656	0.51029
51.021	0.50226
51.388	0.49471
51.758	0.48761
52.131	0.48091
52.506	0.47459
52.885	0.46861
53.266	0.46294
53.649	0.45756
54.036	0.45244
54.425	0.44757
54.817	0.44291
55.212	0.43845
55.61	0.43418
56.01	0.43008
56.414	0.42614
56.82	0.42233
57.229	0.41866
57.641	0.4151
58.057	0.41165
58.475	0.4083
58.896	0.40504
59.32	0.40186
59.748	0.39876
60.178	0.39572
60.611	0.39274
61.048	0.38982
61.488	0.38695
61.931	0.38413
62.377	0.38135
62.826	0.3786
63.279	0.37589
63.734	0.37321
64.193	0.37056
64.656	0.36793
65.122	0.36532
65.591	0.36273
66.063	0.36017
66.539	0.35762
67.018	0.35508
67.501	0.35256
67.987	0.35005
68.477	0.34755
68.97	0.34507
69.467	0.34259
69.967	0.34012
70.471	0.33766
70.979	0.33521
71.49	0.33277
72.005	0.33033
72.524	0.32791
73.046	0.32549
73.572	0.32307
74.102	0.32067
74.636	0.31827
75.174	0.31588
75.715	0.3135
76.261	0.31112
76.81	0.30876
77.363	0.3064
77.92	0.30405
78.482	0.30171
79.047	0.29937
79.616	0.29705
80.19	0.29473
80.768	0.29243
81.349	0.29013
81.935	0.28785
82.525	0.28557
83.12	0.28331
83.719	0.28106
84.322	0.27882
84.929	0.27659
85.541	0.27437
86.157	0.27216
86.778	0.26997
87.403	0.26779
88.032	0.26562
88.666	0.26346
89.305	0.26132
89.948	0.25919
90.596	0.25707
91.249	0.25497
91.906	0.25288
92.568	0.25081
93.235	0.24875
93.906	0.2467
94.583	0.24467
95.264	0.24265
95.95	0.24065
96.641	0.23866
97.338	0.23669
98.039	0.23473
98.745	0.23279
99.456	0.23086
100.17	0.22894
100.89	0.22705
101.62	0.22516
102.35	0.22329
103.09	0.22144
103.83	0.2196
104.58	0.21778
105.33	0.21597
106.09	0.21417
106.86	0.2124
107.63	0.21063
108.4	0.20888
109.18	0.20715
109.97	0.20543
110.76	0.20373
111.56	0.20204
112.36	0.20036
113.17	0.1987
113.99	0.19705
114.81	0.19542
115.64	0.19381
116.47	0.1922
117.31	0.19061
118.15	0.18904
119	0.18748
119.86	0.18593
120.72	0.1844
121.59	0.18288
122.47	0.18138
123.35	0.17988
124.24	0.17841
125.13	0.17694
126.04	0.17549
126.94	0.17405
127.86	0.17263
128.78	0.17121
129.71	0.16981
130.64	0.16843
131.58	0.16705
132.53	0.16569
133.48	0.16434
134.45	0.163
135.41	0.16168
136.39	0.16037
137.37	0.15907
138.36	0.15778
139.36	0.1565
140.36	0.15523
141.37	0.15398
142.39	0.15274
143.42	0.15151
144.45	0.15029
145.49	0.14908
146.54	0.14788
147.59	0.14669
148.66	0.14552
149.73	0.14435
150.81	0.14319
151.89	0.14205
152.99	0.14092
154.09	0.13979
155.2	0.13868
156.32	0.13757
157.44	0.13648
158.58	0.1354
159.72	0.13432
160.87	0.13326
162.03	0.1322
163.2	0.13116
164.37	0.13012
165.56	0.12909
166.75	0.12807
167.95	0.12707
169.16	0.12607
170.38	0.12507
171.6	0.12409
172.84	0.12312
174.09	0.12215
175.34	0.1212
176.6	0.12025
177.87	0.11931
179.16	0.11838
180.45	0.11746
181.75	0.11654
183.05	0.11563
184.37	0.11473
185.7	0.11384
187.04	0.11296
188.39	0.11208
189.74	0.11121
191.11	0.11035
192.49	0.1095
193.87	0.10865
195.27	0.10782
196.68	0.10698
198.09	0.10616
199.52	0.10534
200.96	0.10453
202.4	0.10373
203.86	0.10293
205.33	0.10214
206.81	0.10136
208.3	0.10058
209.8	0.09981
211.31	0.09905
212.83	0.09829
214.37	0.09754
215.91	0.0968
217.47	0.09606
219.03	0.09533
220.61	0.0946
222.2	0.09388
223.8	0.09317
225.41	0.09246
227.04	0.09176
228.67	0.09107
230.32	0.09038
231.98	0.08969
233.65	0.08901
235.33	0.08834
237.03	0.08767
238.73	0.08701
240.45	0.08635
242.18	0.0857
243.93	0.08506
245.69	0.08442
247.46	0.08378
249.24	0.08315
251.03	0.08253
252.84	0.08191
254.66	0.08129
256.5	0.08068
258.35	0.08008
260.21	0.07948
262.08	0.07888
263.97	0.07829
265.87	0.07771
267.78	0.07713
269.71	0.07655
271.66	0.07598
273.61	0.07541
275.58	0.07485
277.57	0.07429
279.57	0.07374
281.58	0.07319
283.61	0.07264
285.65	0.0721
287.71	0.07157
289.78	0.07104
291.87	0.07051
293.97	0.06999
296.09	0.06947
298.22	0.06895
300.37	0.06844
302.54	0.06793
304.71	0.06743
306.91	0.06693
309.12	0.06644
311.35	0.06594
313.59	0.06546
315.85	0.06497
318.12	0.06449
320.41	0.06402
322.72	0.06355
325.05	0.06308
327.39	0.06261
329.75	0.06215
332.12	0.06169
334.51	0.06124
336.92	0.06079
339.35	0.06034
341.8	0.0599
344.26	0.05946
346.74	0.05902
349.23	0.05859
351.75	0.05815
354.28	0.05773
356.84	0.0573
359.41	0.05688
361.99	0.05647
364.6	0.05605
367.23	0.05564
369.87	0.05523
372.54	0.05483
375.22	0.05443
377.92	0.05403
380.65	0.05364
383.39	0.05324
386.15	0.05285
388.93	0.05247
391.73	0.05208
394.55	0.0517
397.4	0.05133
400.26	0.05095
403.14	0.05058
406.05	0.05021
408.97	0.04984
411.92	0.04948
414.88	0.04912
417.87	0.04876
420.88	0.04841
423.91	0.04805
426.97	0.0477
430.04	0.04736
433.14	0.04701
436.26	0.04667
439.4	0.04633
442.57	0.04599
445.76	0.04566
448.97	0.04532
452.2	0.045
455.46	0.04467
458.74	0.04434
462.04	0.04402
465.37	0.0437
468.72	0.04339
472.1	0.04307
475.5	0.04276
478.93	0.04245
482.37	0.04214
485.85	0.04183
489.35	0.04153
492.87	0.04123
496.42	0.04093
500	0.04063

