# Energy(eV) epsilon_i
0	0
0.0129	9E-4
0.0259	0.0019
0.0388	0.0028
0.0518	0.0038
0.0647	0.0047
0.0777	0.0057
0.0906	0.0066
0.1036	0.0076
0.1165	0.0085
0.1295	0.0095
0.1424	0.0104
0.1553	0.0114
0.1683	0.0124
0.1812	0.0134
0.1942	0.0143
0.2071	0.0153
0.2201	0.0163
0.233	0.0173
0.246	0.0183
0.2589	0.0193
0.2719	0.0204
0.2848	0.0214
0.2977	0.0224
0.3107	0.0235
0.3236	0.0246
0.3366	0.0256
0.3495	0.0267
0.3625	0.0278
0.3754	0.029
0.3884	0.0301
0.4013	0.0313
0.4143	0.0324
0.4272	0.0336
0.4401	0.0349
0.4531	0.0361
0.466	0.0374
0.479	0.0387
0.4919	0.0401
0.5049	0.0414
0.5178	0.0429
0.5308	0.0443
0.5437	0.0459
0.5567	0.0475
0.5696	0.0491
0.5825	0.0508
0.5955	0.0526
0.6084	0.0545
0.6214	0.0565
0.6343	0.0586
0.6473	0.0609
0.6602	0.0633
0.6732	0.0659
0.6861	0.0688
0.6991	0.0718
0.712	0.0752
0.7249	0.0789
0.7379	0.083
0.7508	0.0876
0.7638	0.0926
0.7767	0.0983
0.7897	0.1046
0.8026	0.1116
0.8156	0.1193
0.8285	0.1275
0.8415	0.1361
0.8544	0.1448
0.8673	0.1533
0.8803	0.161
0.8932	0.1676
0.9062	0.1725
0.9191	0.1756
0.9321	0.1766
0.945	0.1758
0.958	0.1735
0.9709	0.17
0.9839	0.1659
0.9968	0.1616
1.0097	0.1575
1.0227	0.154
1.0356	0.1513
1.0486	0.1494
1.0615	0.1484
1.0745	0.1483
1.0874	0.1492
1.1004	0.151
1.1133	0.1538
1.1263	0.1576
1.1392	0.1623
1.1521	0.1681
1.1651	0.1752
1.178	0.1835
1.191	0.1933
1.2039	0.2047
1.2169	0.2179
1.2298	0.233
1.2428	0.25
1.2557	0.2689
1.2687	0.2893
1.2816	0.3107
1.2945	0.3322
1.3075	0.3528
1.3204	0.3712
1.3334	0.386
1.3463	0.396
1.3593	0.4007
1.3722	0.3996
1.3852	0.3933
1.3981	0.3826
1.4111	0.3687
1.424	0.3529
1.437	0.3366
1.4499	0.3208
1.4628	0.3063
1.4758	0.2937
1.4887	0.2832
1.5017	0.275
1.5146	0.2691
1.5276	0.2654
1.5405	0.2639
1.5535	0.2645
1.5664	0.2671
1.5794	0.2717
1.5923	0.2782
1.6052	0.2866
1.6182	0.2967
1.6311	0.3082
1.6441	0.3208
1.657	0.334
1.67	0.3472
1.6829	0.3596
1.6959	0.3705
1.7088	0.3795
1.7218	0.386
1.7347	0.3899
1.7476	0.3914
1.7606	0.3908
1.7735	0.3888
1.7865	0.3859
1.7994	0.3828
1.8124	0.3801
1.8253	0.3779
1.8383	0.3765
1.8512	0.3759
1.8642	0.3758
1.8771	0.3762
1.89	0.3769
1.903	0.3779
1.9159	0.3791
1.9289	0.3806
1.9418	0.3826
1.9548	0.3852
1.9677	0.3884
1.9807	0.3924
1.9936	0.3969
2.0066	0.4019
2.0195	0.4069
2.0324	0.4117
2.0454	0.4159
2.0583	0.4194
2.0713	0.4223
2.0842	0.4246
2.0972	0.4267
2.1101	0.429
2.1231	0.4316
2.136	0.435
2.149	0.4391
2.1619	0.444
2.1748	0.4497
2.1878	0.4561
2.2007	0.4632
2.2137	0.4709
2.2266	0.4793
2.2396	0.4887
2.2525	0.4993
2.2655	0.5114
2.2784	0.5256
2.2914	0.5422
2.3043	0.5618
2.3172	0.585
2.3302	0.6122
2.3431	0.6437
2.3561	0.68
2.369	0.7212
2.382	0.7669
2.3949	0.8169
2.4079	0.8701
2.4208	0.9253
2.4338	0.9807
2.4467	1.0344
2.4596	1.0842
2.4726	1.1279
2.4855	1.1637
2.4985	1.1901
2.5114	1.2062
2.5244	1.2119
2.5373	1.2077
2.5503	1.1947
2.5632	1.1747
2.5762	1.1498
2.5891	1.1224
2.602	1.0947
2.615	1.0689
2.6279	1.0465
2.6409	1.0289
2.6538	1.0168
2.6668	1.0104
2.6797	1.0097
2.6927	1.0144
2.7056	1.0241
2.7186	1.0382
2.7315	1.0563
2.7444	1.0782
2.7574	1.1036
2.7703	1.1326
2.7833	1.1652
2.7962	1.2019
2.8092	1.2429
2.8221	1.2885
2.8351	1.339
2.848	1.3942
2.861	1.4537
2.8739	1.5166
2.8868	1.5816
2.8998	1.6468
2.9127	1.7103
2.9257	1.7701
2.9386	1.8245
2.9516	1.8725
2.9645	1.9143
2.9775	1.951
2.9904	1.985
3.0034	2.0196
3.0163	2.0585
3.0292	2.1053
3.0422	2.1632
3.0551	2.2346
3.0681	2.3205
3.081	2.4212
3.094	2.5353
3.1069	2.6608
3.1199	2.7948
3.1328	2.9339
3.1458	3.0747
3.1587	3.2138
3.1716	3.3479
3.1846	3.474
3.1975	3.5894
3.2105	3.6914
3.2234	3.7781
3.2364	3.8481
3.2493	3.9014
3.2623	3.9394
3.2752	3.9654
3.2882	3.9838
3.3011	4
3.314	4.0193
3.327	4.0466
3.3399	4.0853
3.3529	4.1373
3.3658	4.2031
3.3788	4.2824
3.3917	4.3739
3.4047	4.4763
3.4176	4.5885
3.4306	4.7094
3.4435	4.8382
3.4564	4.9739
3.4694	5.1156
3.4823	5.2619
3.4953	5.4116
3.5082	5.563
3.5212	5.7149
3.5341	5.8662
3.5471	6.0163
3.56	6.1653
3.573	6.3141
3.5859	6.4642
3.5988	6.6178
3.6118	6.7774
3.6247	6.9451
3.6377	7.1225
3.6506	7.31
3.6636	7.5063
3.6765	7.7086
3.6895	7.9126
3.7024	8.1137
3.7154	8.3073
3.7283	8.4899
3.7412	8.66
3.7542	8.8182
3.7671	8.9673
3.7801	9.1118
3.793	9.2571
3.806	9.4086
3.8189	9.5703
3.8319	9.7448
3.8448	9.9327
3.8578	10.1325
3.8707	10.3416
3.8836	10.5569
3.8966	10.7757
3.9095	10.9959
3.9225	11.217
3.9354	11.4393
3.9484	11.6641
3.9613	11.893
3.9743	12.1276
3.9872	12.3693
4.0002	12.6186
4.0131	12.8758
4.0261	13.1406
4.039	13.4122
4.0519	13.6894
4.0649	13.9698
4.0778	14.2495
4.0908	14.5228
4.1037	14.7822
4.1167	15.0193
4.1296	15.2256
4.1426	15.3948
4.1555	15.5235
4.1685	15.6121
4.1814	15.6644
4.1943	15.6865
4.2073	15.6858
4.2202	15.6694
4.2332	15.6432
4.2461	15.6112
4.2591	15.5756
4.272	15.5373
4.285	15.4959
4.2979	15.4511
4.3109	15.4028
4.3238	15.3512
4.3367	15.2966
4.3497	15.2394
4.3626	15.1795
4.3756	15.1163
4.3885	15.0487
4.4015	14.9754
4.4144	14.895
4.4274	14.8063
4.4403	14.7084
4.4533	14.6007
4.4662	14.4832
4.4791	14.3569
4.4921	14.2237
4.505	14.0871
4.518	13.9515
4.5309	13.8225
4.5439	13.706
4.5568	13.6074
4.5698	13.532
4.5827	13.4837
4.5957	13.4654
4.6086	13.4784
4.6215	13.523
4.6345	13.5977
4.6474	13.6998
4.6604	13.8247
4.6733	13.9667
4.6863	14.1189
4.6992	14.2742
4.7122	14.426
4.7251	14.569
4.7381	14.7002
4.751	14.8189
4.7639	14.9269
4.7769	15.0272
4.7898	15.1241
4.8028	15.221
4.8157	15.3203
4.8287	15.4224
4.8416	15.5255
4.8546	15.6259
4.8675	15.719
4.8805	15.8
4.8934	15.8652
4.9063	15.912
4.9193	15.9396
4.9322	15.9479
4.9452	15.938
4.9581	15.9109
4.9711	15.868
4.984	15.8103
4.997	15.7393
5.0099	15.656
5.0229	15.5617
5.0358	15.4571
5.0487	15.3429
5.0617	15.2191
5.0746	15.0854
5.0876	14.9417
5.1005	14.7882
5.1135	14.6257
5.1264	14.456
5.1394	14.282
5.1523	14.1071
5.1653	13.9355
5.1782	13.7717
5.1911	13.6196
5.2041	13.4829
5.217	13.3639
5.23	13.264
5.2429	13.1834
5.2559	13.121
5.2688	13.0749
5.2818	13.0426
5.2947	13.0216
5.3077	13.0091
5.3206	13.0027
5.3335	12.9999
5.3465	12.9983
5.3594	12.9953
5.3724	12.9885
5.3853	12.9753
5.3983	12.9535
5.4112	12.9213
5.4242	12.8772
5.4371	12.8206
5.4501	12.7514
5.463	12.6699
5.4759	12.5769
5.4889	12.4739
5.5018	12.3626
5.5148	12.2451
5.5277	12.1239
5.5407	12.0014
5.5536	11.8802
5.5666	11.7622
5.5795	11.6491
5.5925	11.5417
5.6054	11.4402
5.6183	11.3447
5.6313	11.2551
5.6442	11.1717
5.6572	11.0951
5.6701	11.0266
5.6831	10.9675
5.696	10.9194
5.709	10.8834
5.7219	10.8602
5.7349	10.8491
5.7478	10.8484
5.7607	10.8551
5.7737	10.8649
5.7866	10.8732
5.7996	10.8749
5.8125	10.8659
5.8255	10.8432
5.8384	10.8056
5.8514	10.753
5.8643	10.6869
5.8773	10.6091
5.8902	10.5216
5.9031	10.4258
5.9161	10.3224
5.929	10.2115
5.942	10.093
5.9549	9.9668
5.9679	9.8335
5.9808	9.6946
5.9938	9.5523
6.0067	9.4095
6.0197	9.2692
6.0326	9.134
6.0455	9.0057
6.0585	8.8849
6.0714	8.7714
6.0844	8.6643
6.0973	8.5622
6.1103	8.4641
6.1232	8.3692
6.1362	8.277
6.1491	8.1878
6.1621	8.1021
6.175	8.0206
6.1879	7.9439
6.2009	7.8726
6.2138	7.8068
6.2268	7.7468
6.2397	7.6921
6.2527	7.6426
6.2656	7.5979
6.2786	7.5576
6.2915	7.5213
6.3045	7.489
6.3174	7.4605
6.3303	7.436
6.3433	7.4159
6.3562	7.4005
6.3692	7.3905
6.3821	7.386
6.3951	7.3875
6.408	7.395
6.421	7.4084
6.4339	7.4273
6.4469	7.4512
6.4598	7.4792
6.4727	7.5102
6.4857	7.5424
6.4986	7.5736
6.5116	7.6016
6.5245	7.6239
6.5375	7.6388
6.5504	7.6453
6.5634	7.6434
6.5763	7.634
6.5893	7.6184
6.6022	7.5982
6.6151	7.5745
6.6281	7.5477
6.641	7.5172
6.654	7.4818
6.6669	7.44
6.6799	7.3904
6.6928	7.332
6.7058	7.2649
6.7187	7.1903
6.7317	7.1101
6.7446	7.0269
6.7576	6.9435
6.7705	6.8627
6.7834	6.7869
6.7964	6.7177
6.8093	6.6564
6.8223	6.6031
6.8352	6.5576
6.8482	6.5188
6.8611	6.4852
6.8741	6.4552
6.887	6.4269
6.9	6.3989
6.9129	6.3705
6.9258	6.3416
6.9388	6.313
6.9517	6.2861
6.9647	6.2624
6.9776	6.2437
6.9906	6.2312
7.0035	6.2261
7.0165	6.2286
7.0294	6.2389
7.0424	6.2563
7.0553	6.2801
7.0682	6.3092
7.0812	6.3421
7.0941	6.3772
7.1071	6.413
7.12	6.448
7.133	6.4812
7.1459	6.5122
7.1589	6.5409
7.1718	6.5681
7.1848	6.5943
7.1977	6.62
7.2106	6.6454
7.2236	6.6697
7.2365	6.692
7.2495	6.7107
7.2624	6.7239
7.2754	6.7301
7.2883	6.7279
7.3013	6.7163
7.3142	6.6951
7.3272	6.6644
7.3401	6.625
7.353	6.5783
7.366	6.5256
7.3789	6.4683
7.3919	6.4078
7.4048	6.3454
7.4178	6.2818
7.4307	6.2177
7.4437	6.1531
7.4566	6.088
7.4696	6.0221
7.4825	5.9549
7.4954	5.8861
7.5084	5.8161
7.5213	5.7456
7.5343	5.6758
7.5472	5.6085
7.5602	5.5451
7.5731	5.487
7.5861	5.4349
7.599	5.3887
7.612	5.3476
7.6249	5.3105
7.6378	5.2759
7.6508	5.2424
7.6637	5.2088
7.6767	5.1745
7.6896	5.1392
7.7026	5.1031
7.7155	5.0669
7.7285	5.0312
7.7414	4.9966
7.7544	4.9639
7.7673	4.9334
7.7802	4.9054
7.7932	4.8803
7.8061	4.8581
7.8191	4.8392
7.832	4.8236
7.845	4.8115
7.8579	4.8027
7.8709	4.7969
7.8838	4.7938
7.8968	4.7925
7.9097	4.792
7.9226	4.7913
7.9356	4.7893
7.9485	4.7846
7.9615	4.7762
7.9744	4.7627
7.9874	4.7433
8.0003	4.7169
8.0133	4.683
8.0262	4.6411
8.0392	4.5914
8.0521	4.5345
8.065	4.4713
8.078	4.4031
8.0909	4.3314
8.1039	4.2581
8.1168	4.1848
8.1298	4.1132
8.1427	4.0447
8.1557	3.9803
8.1686	3.9208
8.1816	3.8664
8.1945	3.8171
8.2074	3.7724
8.2204	3.7318
8.2333	3.6943
8.2463	3.6593
8.2592	3.6259
8.2722	3.5932
8.2851	3.5608
8.2981	3.5282
8.311	3.4949
8.324	3.4608
8.3369	3.4259
8.3498	3.3903
8.3628	3.3541
8.3757	3.3176
8.3887	3.2812
8.4016	3.2451
8.4146	3.2096
8.4275	3.1749
8.4405	3.141
8.4534	3.1082
8.4664	3.0762
8.4793	3.0451
8.4922	3.0147
8.5052	2.9849
8.5181	2.9556
8.5311	2.9269
8.544	2.899
8.557	2.8722
8.5699	2.847
8.5829	2.8239
8.5958	2.8037
8.6088	2.7869
8.6217	2.7739
8.6346	2.7649
8.6476	2.7598
8.6605	2.7578
8.6735	2.7581
8.6864	2.7594
8.6994	2.7607
8.7123	2.7608
8.7253	2.7589
8.7382	2.7545
8.7512	2.7475
8.7641	2.7378
8.777	2.7255
8.79	2.7108
8.8029	2.6941
8.8159	2.6755
8.8288	2.6557
8.8418	2.6353
8.8547	2.615
8.8677	2.5957
8.8806	2.5782
8.8936	2.5631
8.9065	2.551
8.9194	2.5421
8.9324	2.5364
8.9453	2.5338
8.9583	2.5339
8.9712	2.5363
8.9842	2.5406
8.9971	2.5461
9.0101	2.5525
9.023	2.5593
9.036	2.5659
9.0489	2.5721
9.0618	2.5775
9.0748	2.5819
9.0877	2.585
9.1007	2.5867
9.1136	2.5869
9.1266	2.5858
9.1395	2.5832
9.1525	2.5793
9.1654	2.5742
9.1784	2.5681
9.1913	2.5611
9.2042	2.5534
9.2172	2.5454
9.2301	2.5374
9.2431	2.5298
9.256	2.523
9.269	2.5177
9.2819	2.5141
9.2949	2.5126
9.3078	2.5133
9.3208	2.5161
9.3337	2.5205
9.3466	2.5259
9.3596	2.5316
9.3725	2.5369
9.3855	2.5412
9.3984	2.5439
9.4114	2.5447
9.4243	2.5434
9.4373	2.5398
9.4502	2.5337
9.4632	2.525
9.4761	2.5136
9.4891	2.4993
9.502	2.4822
9.5149	2.4626
9.5279	2.4407
9.5408	2.417
9.5538	2.3921
9.5667	2.3666
9.5797	2.3409
9.5926	2.3155
9.6056	2.2905
9.6185	2.2664
9.6315	2.2433
9.6444	2.2214
9.6573	2.2011
9.6703	2.1827
9.6832	2.1665
9.6962	2.1528
9.7091	2.1417
9.7221	2.1331
9.735	2.1265
9.748	2.1212
9.7609	2.1163
9.7739	2.1108
9.7868	2.1038
9.7997	2.0948
9.8127	2.0835
9.8256	2.07
9.8386	2.0548
9.8515	2.0384
9.8645	2.0216
9.8774	2.0049
9.8904	1.9886
9.9033	1.973
9.9163	1.9581
9.9292	1.9439
9.9421	1.9304
9.9551	1.9174
9.968	1.9051
9.981	1.8936
9.9939	1.8829
10.0069	1.8732
10.0198	1.8646
10.0328	1.8572
10.0457	1.8508
10.0587	1.8454
10.0716	1.8409
10.0845	1.837
10.0975	1.8337
10.1104	1.8308
10.1234	1.8279
10.1363	1.8249
10.1493	1.8214
10.1622	1.8171
10.1752	1.8116
10.1881	1.8047
10.2011	1.7963
10.214	1.7863
10.2269	1.7751
10.2399	1.7628
10.2528	1.7499
10.2658	1.7368
10.2787	1.724
10.2917	1.7118
10.3046	1.7004
10.3176	1.6899
10.3305	1.6804
10.3435	1.6716
10.3564	1.6632
10.3693	1.6549
10.3823	1.6463
10.3952	1.6372
10.4082	1.6273
10.4211	1.6166
10.4341	1.6051
10.447	1.593
10.46	1.5804
10.4729	1.5676
10.4859	1.5547
10.4988	1.5417
10.5117	1.5286
10.5247	1.5154
10.5376	1.5019
10.5506	1.4879
10.5635	1.4732
10.5765	1.4578
10.5894	1.4418
10.6024	1.4254
10.6153	1.4088
10.6283	1.3924
10.6412	1.3766
10.6541	1.3617
10.6671	1.348
10.68	1.3359
10.693	1.3255
10.7059	1.317
10.7189	1.3105
10.7318	1.3058
10.7448	1.3027
10.7577	1.3008
10.7707	1.2997
10.7836	1.2989
10.7965	1.2977
10.8095	1.2959
10.8224	1.293
10.8354	1.289
10.8483	1.284
10.8613	1.2783
10.8742	1.2725
10.8872	1.2669
10.9001	1.2621
10.9131	1.2582
10.926	1.2556
10.9389	1.254
10.9519	1.2532
10.9648	1.253
10.9778	1.253
10.9907	1.2528
11.0037	1.2522
11.0166	1.2509
11.0296	1.2489
11.0425	1.246
11.0555	1.2423
11.0684	1.2377
11.0813	1.2323
11.0943	1.2261
11.1072	1.2189
11.1202	1.2108
11.1331	1.2017
11.1461	1.1917
11.159	1.1808
11.172	1.1693
11.1849	1.1575
11.1979	1.1456
11.2108	1.134
11.2237	1.1228
11.2367	1.1124
11.2496	1.1028
11.2626	1.0942
11.2755	1.0866
11.2885	1.08
11.3014	1.0745
11.3144	1.0702
11.3273	1.0672
11.3403	1.0656
11.3532	1.0657
11.3661	1.0675
11.3791	1.0711
11.392	1.0762
11.405	1.0827
11.4179	1.09
11.4309	1.0979
11.4438	1.1056
11.4568	1.1129
11.4697	1.1192
11.4827	1.1244
11.4956	1.1283
11.5085	1.131
11.5215	1.1324
11.5344	1.1328
11.5474	1.1322
11.5603	1.1307
11.5733	1.1284
11.5862	1.1253
11.5992	1.1214
11.6121	1.1167
11.6251	1.1112
11.638	1.1049
11.6509	1.0979
11.6639	1.0903
11.6768	1.0822
11.6898	1.0737
11.7027	1.065
11.7157	1.0562
11.7286	1.0475
11.7416	1.0389
11.7545	1.0307
11.7675	1.023
11.7804	1.0159
11.7933	1.0094
11.8063	1.0037
11.8192	0.9986
11.8322	0.9942
11.8451	0.9902
11.8581	0.9866
11.871	0.9829
11.884	0.9791
11.8969	0.9748
11.9099	0.9699
11.9228	0.9643
11.9357	0.958
11.9487	0.9511
11.9616	0.9438
11.9746	0.9362
11.9875	0.9287
12.0005	0.9213
12.0134	0.9142
12.0264	0.9075
12.0393	0.9011
12.0523	0.8951
12.0652	0.8895
12.0782	0.8841
12.0911	0.8789
12.104	0.8739
12.117	0.8691
12.1299	0.8644
12.1429	0.8598
12.1558	0.8552
12.1688	0.8507
12.1817	0.8461
12.1947	0.8416
12.2076	0.8368
12.2206	0.8318
12.2335	0.8264
12.2464	0.8204
12.2594	0.8137
12.2723	0.8062
12.2853	0.7978
12.2982	0.7886
12.3112	0.7787
12.3241	0.7682
12.3371	0.7573
12.35	0.7463
12.363	0.7353
12.3759	0.7247
12.3888	0.7146
12.4018	0.7051
12.4147	0.6962
12.4277	0.6879
12.4406	0.6803
12.4536	0.6734
12.4665	0.6671
12.4795	0.6614
12.4924	0.6563
12.5054	0.6519
12.5183	0.648
12.5312	0.6449
12.5442	0.6424
12.5571	0.6405
12.5701	0.6393
12.583	0.6388
12.596	0.6389
12.6089	0.6396
12.6219	0.6408
12.6348	0.6426
12.6478	0.6446
12.6607	0.6468
12.6736	0.649
12.6866	0.651
12.6995	0.6526
12.7125	0.6535
12.7254	0.6537
12.7384	0.6531
12.7513	0.6515
12.7643	0.649
12.7772	0.6455
12.7902	0.6413
12.8031	0.6363
12.816	0.6309
12.829	0.6253
12.8419	0.6196
12.8549	0.614
12.8678	0.6088
12.8808	0.604
12.8937	0.5997
12.9067	0.596
12.9196	0.5927
12.9326	0.5897
12.9455	0.5871
12.9584	0.5847
12.9714	0.5823
12.9843	0.58
12.9973	0.5777
13.0102	0.5752
13.0232	0.5726
13.0361	0.5698
13.0491	0.5668
13.062	0.5634
13.075	0.5598
13.0879	0.556
13.1008	0.5519
13.1138	0.5477
13.1267	0.5434
13.1397	0.5392
13.1526	0.535
13.1656	0.5311
13.1785	0.5274
13.1915	0.524
13.2044	0.5206
13.2174	0.5174
13.2303	0.514
13.2432	0.5104
13.2562	0.5064
13.2691	0.5022
13.2821	0.4976
13.295	0.4926
13.308	0.4876
13.3209	0.4824
13.3339	0.4773
13.3468	0.4724
13.3598	0.4678
13.3727	0.4634
13.3856	0.4594
13.3986	0.4558
13.4115	0.4525
13.4245	0.4495
13.4374	0.4469
13.4504	0.4445
13.4633	0.4422
13.4763	0.4401
13.4892	0.4381
13.5022	0.4361
13.5151	0.4341
13.528	0.432
13.541	0.4298
13.5539	0.4275
13.5669	0.4253
13.5798	0.423
13.5928	0.4208
13.6057	0.4187
13.6187	0.4166
13.6316	0.4147
13.6446	0.4128
13.6575	0.411
13.6704	0.4092
13.6834	0.4074
13.6963	0.4056
13.7093	0.4037
13.7222	0.4017
13.7352	0.3997
13.7481	0.3975
13.7611	0.3952
13.774	0.3928
13.787	0.3902
13.7999	0.3876
13.8128	0.3848
13.8258	0.382
13.8387	0.3793
13.8517	0.3766
13.8646	0.3741
13.8776	0.3718
13.8905	0.3697
13.9035	0.3678
13.9164	0.3662
13.9294	0.3648
13.9423	0.3636
13.9552	0.3626
13.9682	0.3618
13.9811	0.3611
13.9941	0.3606
14.007	0.3602
14.02	0.3599
14.0329	0.3597
14.0459	0.3597
14.0588	0.3598
14.0718	0.36
14.0847	0.3602
14.0976	0.3605
14.1106	0.3609
14.1235	0.3611
14.1365	0.3614
14.1494	0.3614
14.1624	0.3614
14.1753	0.3612
14.1883	0.3607
14.2012	0.3602
14.2142	0.3595
14.2271	0.3588
14.24	0.3581
14.253	0.3576
14.2659	0.3572
14.2789	0.3569
14.2918	0.3569
14.3048	0.357
14.3177	0.3572
14.3307	0.3576
14.3436	0.358
14.3566	0.3585
14.3695	0.359
14.3824	0.3596
14.3954	0.3601
14.4083	0.3606
14.4213	0.3611
14.4342	0.3617
14.4472	0.3622
14.4601	0.3627
14.4731	0.3632
14.486	0.3635
14.499	0.3637
14.5119	0.3636
14.5248	0.3633
14.5378	0.3626
14.5507	0.3616
14.5637	0.3603
14.5766	0.3586
14.5896	0.3566
14.6025	0.3544
14.6155	0.352
14.6284	0.3494
14.6414	0.3466
14.6543	0.3437
14.6672	0.3407
14.6802	0.3376
14.6931	0.3343
14.7061	0.3309
14.719	0.3273
14.732	0.3237
14.7449	0.32
14.7579	0.3163
14.7708	0.3127
14.7838	0.3091
14.7967	0.3056
14.8097	0.3022
14.8226	0.299
14.8355	0.2958
14.8485	0.2928
14.8614	0.2899
14.8744	0.287
14.8873	0.2843
14.9003	0.2817
14.9132	0.2791
14.9262	0.2767
14.9391	0.2744
14.9521	0.2722
14.965	0.2702
14.9779	0.2685
14.9909	0.2669
15.0038	0.2656
15.0168	0.2645
15.0297	0.2636
15.0427	0.2628
15.0556	0.2621
15.0686	0.2614
15.0815	0.2607
15.0945	0.2599
15.1074	0.2589
15.1203	0.2577
15.1333	0.2563
15.1462	0.2547
15.1592	0.2528
15.1721	0.2508
15.1851	0.2488
15.198	0.2467
15.211	0.2448
15.2239	0.243
15.2369	0.2415
15.2498	0.2403
15.2627	0.2393
15.2757	0.2385
15.2886	0.2379
15.3016	0.2373
15.3145	0.2369
15.3275	0.2364
15.3404	0.236
15.3534	0.2355
15.3663	0.235
15.3793	0.2344
15.3922	0.2337
15.4051	0.233
15.4181	0.2321
15.431	0.2312
15.444	0.2302
15.4569	0.2291
15.4699	0.228
15.4828	0.2269
15.4958	0.2257
15.5087	0.2247
15.5217	0.2236
15.5346	0.2225
15.5475	0.2214
15.5605	0.2202
15.5734	0.2189
15.5864	0.2175
15.5993	0.216
15.6123	0.2144
15.6252	0.2126
15.6382	0.2108
15.6511	0.209
15.6641	0.2072
15.677	0.2054
15.6899	0.2037
15.7029	0.2021
15.7158	0.2006
15.7288	0.1992
15.7417	0.198
15.7547	0.1969
15.7676	0.1959
15.7806	0.1951
15.7935	0.1945
15.8065	0.194
15.8194	0.1936
15.8323	0.1933
15.8453	0.1931
15.8582	0.1929
15.8712	0.1928
15.8841	0.1926
15.8971	0.1924
15.91	0.1922
15.923	0.1918
15.9359	0.1912
15.9489	0.1906
15.9618	0.1898
15.9747	0.1889
15.9877	0.1879
16.0006	0.1868
16.0136	0.1857
16.0265	0.1845
16.0395	0.1833
16.0524	0.1821
16.0654	0.1807
16.0783	0.1792
16.0913	0.1776
16.1042	0.1758
16.1171	0.174
16.1301	0.1721
16.143	0.1702
16.156	0.1684
16.1689	0.1667
16.1819	0.1651
16.1948	0.1636
16.2078	0.1623
16.2207	0.161
16.2337	0.1598
16.2466	0.1586
16.2595	0.1574
16.2725	0.1562
16.2854	0.1551
16.2984	0.1541
16.3113	0.1533
16.3243	0.1526
16.3372	0.152
16.3502	0.1516
16.3631	0.1513
16.3761	0.1512
16.389	0.1511
16.4019	0.1511
16.4149	0.1512
16.4278	0.1513
16.4408	0.1514
16.4537	0.1515
16.4667	0.1517
16.4796	0.1518
16.4926	0.152
16.5055	0.1522
16.5185	0.1523
16.5314	0.1524
16.5443	0.1524
16.5573	0.1524
16.5702	0.1523
16.5832	0.1521
16.5961	0.1519
16.6091	0.1517
16.622	0.1513
16.635	0.1509
16.6479	0.1504
16.6609	0.1497
16.6738	0.149
16.6867	0.1481
16.6997	0.1471
16.7126	0.1459
16.7256	0.1447
16.7385	0.1434
16.7515	0.142
16.7644	0.1406
16.7774	0.1392
16.7903	0.1378
16.8033	0.1365
16.8162	0.1352
16.8291	0.134
16.8421	0.1328
16.855	0.1318
16.868	0.131
16.8809	0.1302
16.8939	0.1296
16.9068	0.1291
16.9198	0.1287
16.9327	0.1283
16.9457	0.128
16.9586	0.1278
16.9715	0.1276
16.9845	0.1274
16.9974	0.1272
17.0104	0.1271
17.0233	0.127
17.0363	0.1269
17.0492	0.1269
17.0622	0.127
17.0751	0.127
17.0881	0.1271
17.101	0.1272
17.1139	0.1273
17.1269	0.1273
17.1398	0.1272
17.1528	0.1269
17.1657	0.1266
17.1787	0.126
17.1916	0.1254
17.2046	0.1247
17.2175	0.1239
17.2305	0.1231
17.2434	0.1224
17.2563	0.1216
17.2693	0.121
17.2822	0.1203
17.2952	0.1197
17.3081	0.1191
17.3211	0.1185
17.334	0.1178
17.347	0.1171
17.3599	0.1163
17.3729	0.1154
17.3858	0.1145
17.3987	0.1135
17.4117	0.1126
17.4246	0.1116
17.4376	0.1106
17.4505	0.1096
17.4635	0.1085
17.4764	0.1075
17.4894	0.1065
17.5023	0.1054
17.5153	0.1044
17.5282	0.1033
17.5412	0.1023
17.5541	0.1014
17.567	0.1006
17.58	0.0999
17.5929	0.0994
17.6059	0.0989
17.6188	0.0986
17.6318	0.0983
17.6447	0.098
17.6577	0.0977
17.6706	0.0973
17.6836	0.0967
17.6965	0.096
17.7094	0.095
17.7224	0.0939
17.7353	0.0926
17.7483	0.0912
17.7612	0.0897
17.7742	0.0881
17.7871	0.0866
17.8001	0.085
17.813	0.0835
17.826	0.082
17.8389	0.0806
17.8518	0.0792
17.8648	0.0779
17.8777	0.0766
17.8907	0.0752
17.9036	0.0739
17.9166	0.0726
17.9295	0.0714
17.9425	0.0701
17.9554	0.0689
17.9684	0.0678
17.9813	0.0667
17.9942	0.0657
18.0072	0.0648
18.0201	0.064
18.0331	0.0633
18.046	0.0628
18.059	0.0623
18.0719	0.0619
18.0849	0.0617
18.0978	0.0614
18.1108	0.0613
18.1237	0.0611
18.1366	0.061
18.1496	0.0608
18.1625	0.0606
18.1755	0.0603
18.1884	0.06
18.2014	0.0596
18.2143	0.0593
18.2273	0.0589
18.2402	0.0585
18.2532	0.0581
18.2661	0.0578
18.279	0.0575
18.292	0.0573
18.3049	0.0572
18.3179	0.0572
18.3308	0.0572
18.3438	0.0573
18.3567	0.0575
18.3697	0.0577
18.3826	0.0579
18.3956	0.058
18.4085	0.0582
18.4214	0.0582
18.4344	0.0582
18.4473	0.0581
18.4603	0.0579
18.4732	0.0577
18.4862	0.0575
18.4991	0.0572
18.5121	0.0569
18.525	0.0566
18.538	0.0563
18.5509	0.056
18.5638	0.0556
18.5768	0.0553
18.5897	0.055
18.6027	0.0548
18.6156	0.0545
18.6286	0.0543
18.6415	0.054
18.6545	0.0539
18.6674	0.0537
18.6804	0.0536
18.6933	0.0535
18.7062	0.0534
18.7192	0.0534
18.7321	0.0534
18.7451	0.0535
18.758	0.0536
18.771	0.0538
18.7839	0.054
18.7969	0.0543
18.8098	0.0546
18.8228	0.055
18.8357	0.0554
18.8486	0.0559
18.8616	0.0564
18.8745	0.0569
18.8875	0.0574
18.9004	0.0579
18.9134	0.0584
18.9263	0.0589
18.9393	0.0593
18.9522	0.0597
18.9652	0.06
18.9781	0.0603
18.991	0.0605
19.004	0.0607
19.0169	0.0608
19.0299	0.0609
19.0428	0.0609
19.0558	0.0609
19.0687	0.0609
19.0817	0.0609
19.0946	0.0609
19.1076	0.0609
19.1205	0.061
19.1334	0.0611
19.1464	0.0612
19.1593	0.0613
19.1723	0.0615
19.1852	0.0617
19.1982	0.0619
19.2111	0.0621
19.2241	0.0624
19.237	0.0626
19.25	0.0629
19.2629	0.0631
19.2758	0.0633
19.2888	0.0635
19.3017	0.0637
19.3147	0.0638
19.3276	0.0639
19.3406	0.064
19.3535	0.064
19.3665	0.0639
19.3794	0.0637
19.3924	0.0635
19.4053	0.0633
19.4182	0.063
19.4312	0.0627
19.4441	0.0623
19.4571	0.062
19.47	0.0617
19.483	0.0614
19.4959	0.0611
19.5089	0.0609
19.5218	0.0607
19.5348	0.0606
19.5477	0.0605
19.5606	0.0605
19.5736	0.0605
19.5865	0.0606
19.5995	0.0607
19.6124	0.0609
19.6254	0.0612
19.6383	0.0614
19.6513	0.0618
19.6642	0.0621
19.6772	0.0625
19.6901	0.0628
19.703	0.0632
19.716	0.0635
19.7289	0.0637
19.7419	0.0639
19.7548	0.064
19.7678	0.064
19.7807	0.064
19.7937	0.064
19.8066	0.0639
19.8196	0.0638
19.8325	0.0638
19.8454	0.0638
19.8584	0.0638
19.8713	0.0639
19.8843	0.064
19.8972	0.0642
19.9102	0.0645
19.9231	0.0648
19.9361	0.0651
19.949	0.0654
19.962	0.0657
19.9749	0.066
19.9878	0.0662
20.0008	0.0665
20.0137	0.0667
20.0267	0.067
20.0396	0.0672
20.0526	0.0674
20.0655	0.0677
20.0785	0.0679
20.0914	0.0682
20.1044	0.0684
20.1173	0.0686
20.1303	0.0688
20.1432	0.069
20.1561	0.0692
20.1691	0.0693
20.182	0.0694
20.195	0.0695
20.2079	0.0696
20.2209	0.0697
20.2338	0.0697
20.2468	0.0697
20.2597	0.0698
20.2727	0.0697
20.2856	0.0697
20.2985	0.0696
20.3115	0.0694
20.3244	0.0692
20.3374	0.0689
20.3503	0.0686
20.3633	0.0682
20.3762	0.0678
20.3892	0.0674
20.4021	0.0669
20.4151	0.0664
20.428	0.0659
20.4409	0.0655
20.4539	0.065
20.4668	0.0645
20.4798	0.0641
20.4927	0.0637
20.5057	0.0633
20.5186	0.063
20.5316	0.0627
20.5445	0.0625
20.5575	0.0623
20.5704	0.0621
20.5833	0.0619
20.5963	0.0618
20.6092	0.0616
20.6222	0.0614
20.6351	0.0611
20.6481	0.0608
20.661	0.0604
20.674	0.0601
20.6869	0.0596
20.6999	0.0591
20.7128	0.0586
20.7257	0.0581
20.7387	0.0575
20.7516	0.0569
20.7646	0.0564
20.7775	0.0558
20.7905	0.0552
20.8034	0.0547
20.8164	0.0542
20.8293	0.0538
20.8423	0.0534
20.8552	0.053
20.8681	0.0527
20.8811	0.0524
20.894	0.0521
20.907	0.0518
20.9199	0.0516
20.9329	0.0513
20.9458	0.0511
20.9588	0.0509
20.9717	0.0507
20.9847	0.0506
20.9976	0.0505
21.0105	0.0504
21.0235	0.0504
21.0364	0.0504
21.0494	0.0505
21.0623	0.0507
21.0753	0.0508
21.0882	0.051
21.1012	0.0512
21.1141	0.0513
21.1271	0.0515
21.14	0.0516
21.1529	0.0517
21.1659	0.0517
21.1788	0.0517
21.1918	0.0518
21.2047	0.0518
21.2177	0.0519
21.2306	0.052
21.2436	0.0521
21.2565	0.0523
21.2695	0.0526
21.2824	0.0529
21.2953	0.0533
21.3083	0.0537
21.3212	0.0543
21.3342	0.0548
21.3471	0.0554
21.3601	0.0561
21.373	0.0568
21.386	0.0575
21.3989	0.0582
21.4119	0.0589
21.4248	0.0596
21.4377	0.0603
21.4507	0.061
21.4636	0.0616
21.4766	0.0623
21.4895	0.0629
21.5025	0.0636
21.5154	0.0644
21.5284	0.0652
21.5413	0.0661
21.5543	0.0671
21.5672	0.0682
21.5801	0.0693
21.5931	0.0705
21.606	0.0717
21.619	0.0729
21.6319	0.0742
21.6449	0.0754
21.6578	0.0766
21.6708	0.0777
21.6837	0.0787
21.6967	0.0797
21.7096	0.0805
21.7225	0.0812
21.7355	0.0818
21.7484	0.0823
21.7614	0.0828
21.7743	0.0832
21.7873	0.0837
21.8002	0.0843
21.8132	0.0849
21.8261	0.0857
21.8391	0.0866
21.852	0.0876
21.8649	0.0888
21.8779	0.09
21.8908	0.0914
21.9038	0.0928
21.9167	0.0942
21.9297	0.0956
21.9426	0.0969
21.9556	0.0982
21.9685	0.0994
21.9815	0.1005
21.9944	0.1014
22.0073	0.1022
22.0203	0.103
22.0332	0.1036
22.0462	0.1041
22.0591	0.1046
22.0721	0.105
22.085	0.1054
22.098	0.1057
22.1109	0.106
22.1239	0.1062
22.1368	0.1064
22.1497	0.1066
22.1627	0.1066
22.1756	0.1066
22.1886	0.1065
22.2015	0.1063
22.2145	0.106
22.2274	0.1057
22.2404	0.1053
22.2533	0.1049
22.2663	0.1045
22.2792	0.1042
22.2921	0.104
22.3051	0.104
22.318	0.1041
22.331	0.1043
22.3439	0.1047
22.3569	0.1052
22.3698	0.1057
22.3828	0.1064
22.3957	0.107
22.4087	0.1077
22.4216	0.1083
22.4345	0.1088
22.4475	0.1092
22.4604	0.1096
22.4734	0.1099
22.4863	0.11
22.4993	0.1101
22.5122	0.1101
22.5252	0.1101
22.5381	0.11
22.5511	0.1098
22.564	0.1096
22.5769	0.1094
22.5899	0.1091
22.6028	0.1089
22.6158	0.1087
22.6287	0.1085
22.6417	0.1084
22.6546	0.1084
22.6676	0.1085
22.6805	0.1086
22.6935	0.1087
22.7064	0.1088
22.7193	0.1089
22.7323	0.1089
22.7452	0.1088
22.7582	0.1087
22.7711	0.1085
22.7841	0.1081
22.797	0.1077
22.81	0.1072
22.8229	0.1067
22.8359	0.106
22.8488	0.1053
22.8618	0.1046
22.8747	0.1038
22.8876	0.103
22.9006	0.1023
22.9135	0.1015
22.9265	0.1007
22.9394	0.1
22.9524	0.0992
22.9653	0.0985
22.9783	0.0977
22.9912	0.0968
23.0042	0.0959
23.0171	0.0949
23.03	0.0939
23.043	0.0927
23.0559	0.0915
23.0689	0.0902
23.0818	0.0889
23.0948	0.0876
23.1077	0.0864
23.1207	0.0851
23.1336	0.0839
23.1466	0.0828
23.1595	0.0817
23.1724	0.0807
23.1854	0.0797
23.1983	0.0787
23.2113	0.0778
23.2242	0.0769
23.2372	0.0761
23.2501	0.0753
23.2631	0.0745
23.276	0.0738
23.289	0.0731
23.3019	0.0725
23.3148	0.0719
23.3278	0.0713
23.3407	0.0708
23.3537	0.0704
23.3666	0.07
23.3796	0.0697
23.3925	0.0695
23.4055	0.0694
23.4184	0.0693
23.4314	0.0692
23.4443	0.0692
23.4572	0.0691
23.4702	0.069
23.4831	0.0688
23.4961	0.0685
23.509	0.0682
23.522	0.0677
23.5349	0.0672
23.5479	0.0666
23.5608	0.066
23.5738	0.0653
23.5867	0.0647
23.5996	0.0641
23.6126	0.0636
23.6255	0.0631
23.6385	0.0627
23.6514	0.0623
23.6644	0.0621
23.6773	0.062
23.6903	0.062
23.7032	0.0621
23.7162	0.0623
23.7291	0.0626
23.742	0.0629
23.755	0.0633
23.7679	0.0637
23.7809	0.0641
23.7938	0.0646
23.8068	0.065
23.8197	0.0654
23.8327	0.0659
23.8456	0.0663
23.8586	0.0667
23.8715	0.0671
23.8844	0.0675
23.8974	0.0679
23.9103	0.0682
23.9233	0.0685
23.9362	0.0688
23.9492	0.069
23.9621	0.0691
23.9751	0.0691
23.988	0.069
24.001	0.0689
24.0139	0.0687
24.0268	0.0684
24.0398	0.0681
24.0527	0.0678
24.0657	0.0674
24.0786	0.0671
24.0916	0.0667
24.1045	0.0665
24.1175	0.0663
24.1304	0.0662
24.1434	0.0662
24.1563	0.0664
24.1692	0.0667
24.1822	0.0671
24.1951	0.0677
24.2081	0.0684
24.221	0.0692
24.234	0.07
24.2469	0.0708
24.2599	0.0715
24.2728	0.0721
24.2858	0.0727
24.2987	0.0731
24.3116	0.0734
24.3246	0.0736
24.3375	0.0735
24.3505	0.0734
24.3634	0.0731
24.3764	0.0726
24.3893	0.0721
24.4023	0.0716
24.4152	0.071
24.4282	0.0705
24.4411	0.07
24.454	0.0697
24.467	0.0694
24.4799	0.0692
24.4929	0.0692
24.5058	0.0692
24.5188	0.0694
24.5317	0.0695
24.5447	0.0698
24.5576	0.07
24.5706	0.0702
24.5835	0.0705
24.5964	0.0708
24.6094	0.071
24.6223	0.0713
24.6353	0.0717
24.6482	0.072
24.6612	0.0724
24.6741	0.0728
24.6871	0.0732
24.7	0.0736
24.713	0.0741
24.7259	0.0746
24.7388	0.0751
24.7518	0.0756
24.7647	0.0761
24.7777	0.0766
24.7906	0.077
24.8036	0.0773
24.8165	0.0774
24.8295	0.0775
24.8424	0.0773
24.8554	0.077
24.8683	0.0766
24.8812	0.0761
24.8942	0.0755
24.9071	0.0749
24.9201	0.0743
24.933	0.0737
24.946	0.0731
24.9589	0.0727
24.9719	0.0723
24.9848	0.0721
24.9978	0.072
25.0107	0.0719
25.0236	0.072
25.0366	0.0721
25.0495	0.0723
25.0625	0.0726
25.0754	0.0728
25.0884	0.073
25.1013	0.0732
25.1143	0.0733
25.1272	0.0734
25.1402	0.0734
25.1531	0.0733
25.166	0.0732
25.179	0.0731
25.1919	0.0728
25.2049	0.0726
25.2178	0.0723
25.2308	0.072
25.2437	0.0716
25.2567	0.0712
25.2696	0.0708
25.2826	0.0703
25.2955	0.0699
25.3084	0.0693
25.3214	0.0688
25.3343	0.0682
25.3473	0.0676
25.3602	0.067
25.3732	0.0664
25.3861	0.0659
25.3991	0.0654
25.412	0.0649
25.425	0.0645
25.4379	0.0641
25.4508	0.0638
25.4638	0.0635
25.4767	0.0633
25.4897	0.0631
25.5026	0.0629
25.5156	0.0628
25.5285	0.0627
25.5415	0.0626
25.5544	0.0625
25.5674	0.0624
25.5803	0.0624
25.5933	0.0623
25.6062	0.0623
25.6191	0.0622
25.6321	0.0622
25.645	0.0621
25.658	0.062
25.6709	0.0618
25.6839	0.0616
25.6968	0.0614
25.7098	0.0611
25.7227	0.0607
25.7357	0.0603
25.7486	0.0599
25.7615	0.0594
25.7745	0.0588
25.7874	0.0583
25.8004	0.0576
25.8133	0.057
25.8263	0.0563
25.8392	0.0557
25.8522	0.0551
25.8651	0.0544
25.8781	0.0539
25.891	0.0534
25.9039	0.0529
25.9169	0.0525
25.9298	0.0522
25.9428	0.0519
25.9557	0.0516
25.9687	0.0514
25.9816	0.0513
25.9946	0.0511
26.0075	0.0509
26.0205	0.0508
26.0334	0.0507
26.0463	0.0505
26.0593	0.0504
26.0722	0.0502
26.0852	0.05
26.0981	0.0498
26.1111	0.0496
26.124	0.0494
26.137	0.0492
26.1499	0.0489
26.1629	0.0486
26.1758	0.0483
26.1887	0.048
26.2017	0.0477
26.2146	0.0474
26.2276	0.0471
26.2405	0.0468
26.2535	0.0465
26.2664	0.0462
26.2794	0.046
26.2923	0.0459
26.3053	0.0457
26.3182	0.0456
26.3311	0.0456
26.3441	0.0456
26.357	0.0456
26.37	0.0456
26.3829	0.0457
26.3959	0.0457
26.4088	0.0458
26.4218	0.0459
26.4347	0.046
26.4477	0.0461
26.4606	0.0462
26.4735	0.0462
26.4865	0.0463
26.4994	0.0463
26.5124	0.0462
26.5253	0.0462
26.5383	0.0461
26.5512	0.046
26.5642	0.0459
26.5771	0.0458
26.5901	0.0457
26.603	0.0455
26.6159	0.0454
26.6289	0.0452
26.6418	0.0451
26.6548	0.0449
26.6677	0.0448
26.6807	0.0447
26.6936	0.0446
26.7066	0.0445
26.7195	0.0445
26.7325	0.0445
26.7454	0.0445
26.7583	0.0446
26.7713	0.0448
26.7842	0.0449
26.7972	0.0451
26.8101	0.0453
26.8231	0.0454
26.836	0.0456
26.849	0.0457
26.8619	0.0459
26.8749	0.0459
26.8878	0.046
26.9007	0.046
26.9137	0.0459
26.9266	0.0458
26.9396	0.0457
26.9525	0.0455
26.9655	0.0453
26.9784	0.0452
26.9914	0.0451
27.0043	0.045
27.0173	0.0449
27.0302	0.0449
27.0431	0.0449
27.0561	0.045
27.069	0.0451
27.082	0.0452
27.0949	0.0453
27.1079	0.0454
27.1208	0.0454
27.1338	0.0455
27.1467	0.0455
27.1597	0.0455
27.1726	0.0454
27.1855	0.0454
27.1985	0.0453
27.2114	0.0452
27.2244	0.045
27.2373	0.0449
27.2503	0.0447
27.2632	0.0446
27.2762	0.0444
27.2891	0.0443
27.3021	0.0441
27.315	0.0439
27.3279	0.0438
27.3409	0.0436
27.3538	0.0435
27.3668	0.0433
27.3797	0.0432
27.3927	0.0431
27.4056	0.043
27.4186	0.0429
27.4315	0.0428
27.4445	0.0427
27.4574	0.0427
27.4703	0.0426
27.4833	0.0426
27.4962	0.0425
27.5092	0.0425
27.5221	0.0425
27.5351	0.0425
27.548	0.0425
27.561	0.0426
27.5739	0.0427
27.5869	0.0427
27.5998	0.0428
27.6127	0.043
27.6257	0.043
27.6386	0.0431
27.6516	0.0432
27.6645	0.0432
27.6775	0.0432
27.6904	0.0432
27.7034	0.0431
27.7163	0.0431
27.7293	0.043
27.7422	0.0429
27.7551	0.0428
27.7681	0.0427
27.781	0.0425
27.794	0.0425
27.8069	0.0424
27.8199	0.0423
27.8328	0.0423
27.8458	0.0422
27.8587	0.0422
27.8717	0.0422
27.8846	0.0421
27.8975	0.0421
27.9105	0.042
27.9234	0.0419
27.9364	0.0418
27.9493	0.0417
27.9623	0.0416
27.9752	0.0414
27.9882	0.0413
28.0011	0.0412
28.0141	0.041
28.027	0.0409
28.0399	0.0408
28.0529	0.0406
28.0658	0.0405
28.0788	0.0403
28.0917	0.0401
28.1047	0.04
28.1176	0.0398
28.1306	0.0396
28.1435	0.0394
28.1565	0.0392
28.1694	0.0391
28.1824	0.0389
28.1953	0.0388
28.2082	0.0386
28.2212	0.0385
28.2341	0.0384
28.2471	0.0383
28.26	0.0382
28.273	0.0381
28.2859	0.0381
28.2989	0.038
28.3118	0.0379
28.3248	0.0379
28.3377	0.0378
28.3506	0.0378
28.3636	0.0377
28.3765	0.0376
28.3895	0.0376
28.4024	0.0375
28.4154	0.0374
28.4283	0.0374
28.4413	0.0373
28.4542	0.0373
28.4672	0.0372
28.4801	0.0371
28.493	0.0371
28.506	0.037
28.5189	0.0369
28.5319	0.0369
28.5448	0.0368
28.5578	0.0368
28.5707	0.0368
28.5837	0.0368
28.5966	0.0368
28.6096	0.0368
28.6225	0.0368
28.6354	0.0368
28.6484	0.0368
28.6613	0.0368
28.6743	0.0368
28.6872	0.0368
28.7002	0.0367
28.7131	0.0367
28.7261	0.0367
28.739	0.0366
28.752	0.0366
28.7649	0.0365
28.7778	0.0364
28.7908	0.0364
28.8037	0.0363
28.8167	0.0363
28.8296	0.0362
28.8426	0.0361
28.8555	0.0361
28.8685	0.036
28.8814	0.0359
28.8944	0.0358
28.9073	0.0356
28.9202	0.0355
28.9332	0.0354
28.9461	0.0352
28.9591	0.0351
28.972	0.0349
28.985	0.0348
28.9979	0.0347
29.0109	0.0346
29.0238	0.0345
29.0368	0.0344
29.0497	0.0343
29.0626	0.0342
29.0756	0.0341
29.0885	0.034
29.1015	0.0339
29.1144	0.0338
29.1274	0.0337
29.1403	0.0336
29.1533	0.0335
29.1662	0.0333
29.1792	0.0332
29.1921	0.033
29.205	0.0328
29.218	0.0326
29.2309	0.0324
29.2439	0.0322
29.2568	0.0319
29.2698	0.0317
29.2827	0.0314
29.2957	0.0312
29.3086	0.0309
29.3216	0.0306
29.3345	0.0304
29.3474	0.0301
29.3604	0.0299
29.3733	0.0296
29.3863	0.0294
29.3992	0.0292
29.4122	0.029
29.4251	0.0288
29.4381	0.0286
29.451	0.0284
29.464	0.0282
29.4769	0.028
29.4898	0.0278
29.5028	0.0276
29.5157	0.0274
29.5287	0.0272
29.5416	0.0269
29.5546	0.0267
29.5675	0.0264
29.5805	0.0262
29.5934	0.0259
29.6064	0.0257
29.6193	0.0254
29.6322	0.0252
29.6452	0.025
29.6581	0.0248
29.6711	0.0246
29.684	0.0244
29.697	0.0243
29.7099	0.0241
29.7229	0.024
29.7358	0.0238
29.7488	0.0237
29.7617	0.0235
29.7746	0.0233
29.7876	0.0231
29.8005	0.0229
29.8135	0.0227
29.8264	0.0225
29.8394	0.0223
29.8523	0.022
29.8653	0.0218
29.8782	0.0215
29.8912	0.0213
29.9041	0.0211
29.917	0.0209
29.93	0.0207
29.9429	0.0205
29.9559	0.0203
29.9688	0.0201
29.9818	0.02
29.9947	0.0198
30.0077	0.0197
30.0206	0.0195
30.0336	0.0194
30.0465	0.0192
30.0594	0.019
30.0724	0.0188
30.0853	0.0186
30.0983	0.0184
30.1112	0.0181
30.1242	0.0179
30.1371	0.0177
30.1501	0.0174
30.163	0.0172
30.176	0.0169
30.1889	0.0167
30.2018	0.0165
30.2148	0.0163
30.2277	0.0161
30.2407	0.0159
30.2536	0.0157
30.2666	0.0156
30.2795	0.0154
30.2925	0.0153
30.3054	0.0151
30.3184	0.0149
30.3313	0.0148
30.3442	0.0146
30.3572	0.0144
30.3701	0.0143
30.3831	0.0141
30.396	0.0139
30.409	0.0137
30.4219	0.0136
30.4349	0.0134
30.4478	0.0132
30.4608	0.0131
30.4737	0.013
30.4866	0.0128
30.4996	0.0127
30.5125	0.0126
30.5255	0.0125
30.5384	0.0123
30.5514	0.0122
30.5643	0.0121
30.5773	0.012
30.5902	0.0118
30.6032	0.0117
30.6161	0.0115
30.629	0.0113
30.642	0.0111
30.6549	0.0109
30.6679	0.0107
30.6808	0.0105
30.6938	0.0103
30.7067	0.0101
30.7197	0.0099
30.7326	0.0097
30.7456	0.0096
30.7585	0.0094
30.7714	0.0093
30.7844	0.0091
30.7973	0.009
30.8103	0.0089
30.8232	0.0088
30.8362	0.0086
30.8491	0.0085
30.8621	0.0084
30.875	0.0082
30.888	0.0081
30.9009	0.008
30.9139	0.0078
30.9268	0.0077
30.9397	0.0076
30.9527	0.0074
30.9656	0.0073
30.9786	0.0072
30.9915	0.0071
31.0045	0.007
31.0174	0.0069
31.0304	0.0068
31.0433	0.0067
31.0563	0.0066
31.0692	0.0065
31.0821	0.0064
31.0951	0.0063
31.108	0.0061
31.121	0.006
31.1339	0.0059
31.1469	0.0058
31.1598	0.0057
31.1728	0.0056
31.1857	0.0055
31.1987	0.0054
31.2116	0.0053
31.2245	0.0053
31.2375	0.0052
31.2504	0.0051
31.2634	0.0051
31.2763	0.005
31.2893	0.0049
31.3022	0.0049
31.3152	0.0048
31.3281	0.0047
31.3411	0.0047
31.354	0.0046
31.3669	0.0045
31.3799	0.0044
31.3928	0.0044
31.4058	0.0043
31.4187	0.0042
31.4317	0.0042
31.4446	0.0041
31.4576	0.004
31.4705	0.004
31.4835	0.0039
31.4964	0.0038
31.5093	0.0038
31.5223	0.0037
31.5352	0.0037
31.5482	0.0036
31.5611	0.0035
31.5741	0.0035
31.587	0.0034
31.6	0.0034
31.6129	0.0033
31.6259	0.0033
31.6388	0.0033
31.6517	0.0032
31.6647	0.0032
31.6776	0.0032
31.6906	0.0031
31.7035	0.0031
31.7165	0.0031
31.7294	0.003
31.7424	0.003
31.7553	0.003
31.7683	0.0029
31.7812	0.0029
31.7941	0.0029
31.8071	0.0029
31.82	0.0028
31.833	0.0028
31.8459	0.0028
31.8589	0.0028
31.8718	0.0027
31.8848	0.0027
31.8977	0.0027
31.9107	0.0027
31.9236	0.0026
31.9365	0.0026
31.9495	0.0026
31.9624	0.0026
31.9754	0.0026
31.9883	0.0025
32.0013	0.0025
32.0142	0.0025
32.0272	0.0025
32.0401	0.0025
32.0531	0.0024
32.066	0.0024
32.0789	0.0024
32.0919	0.0024
32.1048	0.0024
32.1178	0.0024
32.1307	0.0023
32.1437	0.0023
32.1566	0.0023
32.1696	0.0023
32.1825	0.0023
32.1955	0.0023
32.2084	0.0023
32.2213	0.0023
32.2343	0.0022
32.2472	0.0022
32.2602	0.0022
32.2731	0.0022
32.2861	0.0022
32.299	0.0022
32.312	0.0022
32.3249	0.0022
32.3379	0.0022
32.3508	0.0022
32.3637	0.0021
32.3767	0.0021
32.3896	0.0021
32.4026	0.0021
32.4155	0.0021
32.4285	0.0021
32.4414	0.0021
32.4544	0.0021
32.4673	0.0021
32.4803	0.0021
32.4932	0.0021
32.5061	0.0021
32.5191	0.002
32.532	0.002
32.545	0.002
32.5579	0.002
32.5709	0.002
32.5838	0.002
32.5968	0.002
32.6097	0.002
32.6227	0.002
32.6356	0.002
32.6485	0.002
32.6615	0.002
32.6744	0.002
32.6874	0.002
32.7003	0.002
32.7133	0.002
32.7262	0.002
32.7392	0.0019
32.7521	0.0019
32.7651	0.0019
32.778	0.0019
32.7909	0.0019
32.8039	0.0019
32.8168	0.0019
32.8298	0.0019
32.8427	0.0019
32.8557	0.0019
32.8686	0.0019
32.8816	0.0019
32.8945	0.0019
32.9075	0.0019
32.9204	0.0019
32.9333	0.0019
32.9463	0.0019
32.9592	0.0019
32.9722	0.0019
32.9851	0.0019
32.9981	0.0019
33.011	0.0019
33.024	0.0018
33.0369	0.0018
33.0499	0.0018
33.0628	0.0018
33.0757	0.0018
33.0887	0.0018
33.1016	0.0018
33.1146	0.0018
33.1275	0.0018
33.1405	0.0018
33.1534	0.0018
33.1664	0.0018
33.1793	0.0018
33.1923	0.0018
33.2052	0.0018
33.2181	0.0018
33.2311	0.0018
33.244	0.0018
33.257	0.0018
33.2699	0.0018
33.2829	0.0018
33.2958	0.0018
33.3088	0.0018
33.3217	0.0018
33.3347	0.0018
33.3476	0.0018
33.3605	0.0017
33.3735	0.0017
33.3864	0.0017
33.3994	0.0017
33.4123	0.0017
33.4253	0.0017
33.4382	0.0017
33.4512	0.0017
33.4641	0.0017
33.4771	0.0017
33.49	0.0017
33.5029	0.0017
33.5159	0.0017
33.5288	0.0017
33.5418	0.0017
33.5547	0.0017
33.5677	0.0017
33.5806	0.0017
33.5936	0.0017
33.6065	0.0017
33.6195	0.0017
33.6324	0.0017
33.6454	0.0017
33.6583	0.0017
33.6712	0.0017
33.6842	0.0017
33.6971	0.0017
33.7101	0.0017
33.723	0.0017
33.736	0.0017
33.7489	0.0016
33.7619	0.0016
33.7748	0.0016
33.7878	0.0016
33.8007	0.0016
33.8136	0.0016
33.8266	0.0016
33.8395	0.0016
33.8525	0.0016
33.8654	0.0016
33.8784	0.0016
33.8913	0.0016
33.9043	0.0016
33.9172	0.0016
33.9302	0.0016
33.9431	0.0016
33.956	0.0016
33.969	0.0016
33.9819	0.0016
33.9949	0.0016
34.0078	0.0016
34.0208	0.0016
34.0337	0.0016
34.0467	0.0016
34.0596	0.0016
34.0726	0.0016
34.0855	0.0016
34.0984	0.0016
34.1114	0.0016
34.1243	0.0016
34.1373	0.0016
34.1502	0.0016
34.1632	0.0016
34.1761	0.0016
34.1891	0.0016
34.202	0.0015
34.215	0.0015
34.2279	0.0015
34.2408	0.0015
34.2538	0.0015
34.2667	0.0015
34.2797	0.0015
34.2926	0.0015
34.3056	0.0015
34.3185	0.0015
34.3315	0.0015
34.3444	0.0015
34.3574	0.0015
34.3703	0.0015
34.3832	0.0015
34.3962	0.0015
34.4091	0.0015
34.4221	0.0015
34.435	0.0015
34.448	0.0015
34.4609	0.0015
34.4739	0.0015
34.4868	0.0015
34.4998	0.0015
34.5127	0.0015
34.5256	0.0015
34.5386	0.0015
34.5515	0.0015
34.5645	0.0015
34.5774	0.0015
34.5904	0.0015
34.6033	0.0015
34.6163	0.0015
34.6292	0.0015
34.6422	0.0015
34.6551	0.0015
34.668	0.0015
34.681	0.0015
34.6939	0.0015
34.7069	0.0015
34.7198	0.0015
34.7328	0.0014
34.7457	0.0014
34.7587	0.0014
34.7716	0.0014
34.7846	0.0014
34.7975	0.0014
34.8104	0.0014
34.8234	0.0014
34.8363	0.0014
34.8493	0.0014
34.8622	0.0014
34.8752	0.0014
34.8881	0.0014
34.9011	0.0014
34.914	0.0014
34.927	0.0014
34.9399	0.0014
34.9528	0.0014
34.9658	0.0014
34.9787	0.0014
34.9917	0.0014
35.0046	0.0014
35.0176	0.0014
35.0305	0.0014
35.0435	0.0014
35.0564	0.0014
35.0694	0.0014
35.0823	0.0014
35.0952	0.0014
35.1082	0.0014
35.1211	0.0014
35.1341	0.0014
35.147	0.0014
35.16	0.0014
35.1729	0.0014
35.1859	0.0014
35.1988	0.0014
35.2118	0.0014
35.2247	0.0014
35.2376	0.0014
35.2506	0.0014
35.2635	0.0014
35.2765	0.0014
35.2894	0.0014
35.3024	0.0014
35.3153	0.0014
35.3283	0.0014
35.3412	0.0013
35.3542	0.0013
35.3671	0.0013
35.38	0.0013
35.393	0.0013
35.4059	0.0013
35.4189	0.0013
35.4318	0.0013
35.4448	0.0013
35.4577	0.0013
35.4707	0.0013
35.4836	0.0013
35.4966	0.0013
35.5095	0.0013
35.5224	0.0013
35.5354	0.0013
35.5483	0.0013
35.5613	0.0013
35.5742	0.0013
35.5872	0.0013
35.6001	0.0013
35.6131	0.0013
35.626	0.0013
35.639	0.0013
35.6519	0.0013
35.6648	0.0013
35.6778	0.0013
35.6907	0.0013
35.7037	0.0013
35.7166	0.0013
35.7296	0.0013
35.7425	0.0013
35.7555	0.0013
35.7684	0.0013
35.7814	0.0013
35.7943	0.0013
35.8072	0.0013
35.8202	0.0013
35.8331	0.0013
35.8461	0.0013
35.859	0.0013
35.872	0.0013
35.8849	0.0013
35.8979	0.0013
35.9108	0.0013
35.9238	0.0013
35.9367	0.0013
35.9496	0.0013
35.9626	0.0013
35.9755	0.0013
35.9885	0.0013
36.0014	0.0013
36.0144	0.0013
36.0273	0.0013
36.0403	0.0012
36.0532	0.0012
36.0662	0.0012
36.0791	0.0012
36.092	0.0012
36.105	0.0012
36.1179	0.0012
36.1309	0.0012
36.1438	0.0012
36.1568	0.0012
36.1697	0.0012
36.1827	0.0012
36.1956	0.0012
36.2086	0.0012
36.2215	0.0012
36.2345	0.0012
36.2474	0.0012
36.2603	0.0012
36.2733	0.0012
36.2862	0.0012
36.2992	0.0012
36.3121	0.0012
36.3251	0.0012
36.338	0.0012
36.351	0.0012
36.3639	0.0012
36.3769	0.0012
36.3898	0.0012
36.4027	0.0012
36.4157	0.0012
36.4286	0.0012
36.4416	0.0012
36.4545	0.0012
36.4675	0.0012
36.4804	0.0012
36.4934	0.0012
36.5063	0.0012
36.5193	0.0012
36.5322	0.0012
36.5451	0.0012
36.5581	0.0012
36.571	0.0012
36.584	0.0012
36.5969	0.0012
36.6099	0.0012
36.6228	0.0012
36.6358	0.0012
36.6487	0.0012
36.6617	0.0012
36.6746	0.0012
36.6875	0.0012
36.7005	0.0012
36.7134	0.0012
36.7264	0.0012
36.7393	0.0012
36.7523	0.0012
36.7652	0.0012
36.7782	0.0012
36.7911	0.0012
36.8041	0.0012
36.817	0.0012
36.8299	0.0012
36.8429	0.0011
36.8558	0.0011
36.8688	0.0011
36.8817	0.0011
36.8947	0.0011
36.9076	0.0011
36.9206	0.0011
36.9335	0.0011
36.9465	0.0011
36.9594	0.0011
36.9723	0.0011
36.9853	0.0011
36.9982	0.0011
37.0112	0.0011
37.0241	0.0011
37.0371	0.0011
37.05	0.0011
37.063	0.0011
37.0759	0.0011
37.0889	0.0011
37.1018	0.0011
37.1147	0.0011
37.1277	0.0011
37.1406	0.0011
37.1536	0.0011
37.1665	0.0011
37.1795	0.0011
37.1924	0.0011
37.2054	0.0011
37.2183	0.0011
37.2313	0.0011
37.2442	0.0011
37.2571	0.0011
37.2701	0.0011
37.283	0.0011
37.296	0.0011
37.3089	0.0011
37.3219	0.0011
37.3348	0.0011
37.3478	0.0011
37.3607	0.0011
37.3737	0.0011
37.3866	0.0011
37.3995	0.0011
37.4125	0.0011
37.4254	0.0011
37.4384	0.0011
37.4513	0.0011
37.4643	0.0011
37.4772	0.0011
37.4902	0.0011
37.5031	0.0011
37.5161	0.0011
37.529	0.0011
37.5419	0.0011
37.5549	0.0011
37.5678	0.0011
37.5808	0.0011
37.5937	0.0011
37.6067	0.0011
37.6196	0.0011
37.6326	0.0011
37.6455	0.0011
37.6585	0.0011
37.6714	0.0011
37.6843	0.0011
37.6973	0.0011
37.7102	0.0011
37.7232	0.0011
37.7361	0.0011
37.7491	0.0011
37.762	0.0011
37.775	0.001
37.7879	0.001
37.8009	0.001
37.8138	0.001
37.8267	0.001
37.8397	0.001
37.8526	0.001
37.8656	0.001
37.8785	0.001
37.8915	0.001
37.9044	0.001
37.9174	0.001
37.9303	0.001
37.9433	0.001
37.9562	0.001
37.9691	0.001
37.9821	0.001
37.995	0.001
38.008	0.001
38.0209	0.001
38.0339	0.001
38.0468	0.001
38.0598	0.001
38.0727	0.001
38.0857	0.001
38.0986	0.001
38.1115	0.001
38.1245	0.001
38.1374	0.001
38.1504	0.001
38.1633	0.001
38.1763	0.001
38.1892	0.001
38.2022	0.001
38.2151	0.001
38.2281	0.001
38.241	0.001
38.2539	0.001
38.2669	0.001
38.2798	0.001
38.2928	0.001
38.3057	0.001
38.3187	0.001
38.3316	0.001
38.3446	0.001
38.3575	0.001
38.3705	0.001
38.3834	0.001
38.3963	0.001
38.4093	0.001
38.4222	0.001
38.4352	0.001
38.4481	0.001
38.4611	0.001
38.474	0.001
38.487	0.001
38.4999	0.001
38.5129	0.001
38.5258	0.001
38.5387	0.001
38.5517	0.001
38.5646	0.001
38.5776	0.001
38.5905	0.001
38.6035	0.001
38.6164	0.001
38.6294	0.001
38.6423	0.001
38.6553	0.001
38.6682	0.001
38.6811	0.001
38.6941	0.001
38.707	0.001
38.72	0.001
38.7329	0.001
38.7459	0.001
38.7588	0.001
38.7718	0.001
38.7847	0.001
38.7977	0.001
38.8106	0.001
38.8235	0.001
38.8365	0.001