# Energy(eV) epsilon_i
0	0
0.0129	0.0029
0.0259	0.0058
0.0388	0.0087
0.0518	0.0117
0.0647	0.0146
0.0777	0.0176
0.0906	0.0206
0.1036	0.0237
0.1165	0.0267
0.1295	0.0299
0.1424	0.033
0.1553	0.0363
0.1683	0.0396
0.1812	0.0429
0.1942	0.0464
0.2071	0.0499
0.2201	0.0535
0.233	0.0572
0.246	0.061
0.2589	0.065
0.2719	0.0691
0.2848	0.0733
0.2977	0.0777
0.3107	0.0822
0.3236	0.087
0.3366	0.0919
0.3495	0.0971
0.3625	0.1025
0.3754	0.1082
0.3884	0.1142
0.4013	0.1206
0.4143	0.1273
0.4272	0.1343
0.4401	0.1419
0.4531	0.1499
0.466	0.1584
0.479	0.1676
0.4919	0.1774
0.5049	0.188
0.5178	0.1994
0.5308	0.2118
0.5437	0.2253
0.5567	0.2399
0.5696	0.256
0.5825	0.2736
0.5955	0.293
0.6084	0.3144
0.6214	0.3382
0.6343	0.3648
0.6473	0.3946
0.6602	0.428
0.6732	0.4659
0.6861	0.5088
0.6991	0.5577
0.712	0.6137
0.7249	0.6779
0.7379	0.7518
0.7508	0.837
0.7638	0.9351
0.7767	1.0478
0.7897	1.1764
0.8026	1.3214
0.8156	1.4825
0.8285	1.6574
0.8415	1.8414
0.8544	2.0271
0.8673	2.2045
0.8803	2.3618
0.8932	2.4864
0.9062	2.5674
0.9191	2.5971
0.9321	2.5728
0.945	2.4973
0.958	2.3783
0.9709	2.2268
0.9839	2.0554
0.9968	1.8759
1.0097	1.6983
1.0227	1.53
1.0356	1.3756
1.0486	1.2373
1.0615	1.1158
1.0745	1.0102
1.0874	0.9193
1.1004	0.8416
1.1133	0.7753
1.1263	0.7189
1.1392	0.671
1.1521	0.6305
1.1651	0.5962
1.178	0.5674
1.191	0.5433
1.2039	0.5234
1.2169	0.5072
1.2298	0.4942
1.2428	0.4842
1.2557	0.4769
1.2687	0.4721
1.2816	0.4698
1.2945	0.4697
1.3075	0.4719
1.3204	0.4764
1.3334	0.4831
1.3463	0.4921
1.3593	0.5036
1.3722	0.5177
1.3852	0.5346
1.3981	0.5546
1.4111	0.578
1.424	0.6052
1.437	0.6368
1.4499	0.6732
1.4628	0.7153
1.4758	0.764
1.4887	0.8202
1.5017	0.8853
1.5146	0.9606
1.5276	1.0479
1.5405	1.149
1.5535	1.2657
1.5664	1.4
1.5794	1.5532
1.5923	1.7261
1.6052	1.9181
1.6182	2.127
1.6311	2.3478
1.6441	2.5734
1.657	2.7939
1.67	2.9976
1.6829	3.1719
1.6959	3.305
1.7088	3.3873
1.7218	3.4125
1.7347	3.379
1.7476	3.2895
1.7606	3.151
1.7735	2.9737
1.7865	2.7698
1.7994	2.5515
1.8124	2.3301
1.8253	2.115
1.8383	1.913
1.8512	1.7282
1.8642	1.5628
1.8771	1.417
1.89	1.2899
1.903	1.1801
1.9159	1.0858
1.9289	1.0049
1.9418	0.9358
1.9548	0.8768
1.9677	0.8264
1.9807	0.7834
1.9936	0.7468
2.0066	0.7155
2.0195	0.6888
2.0324	0.6659
2.0454	0.6464
2.0583	0.6297
2.0713	0.6156
2.0842	0.6038
2.0972	0.5942
2.1101	0.5866
2.1231	0.581
2.136	0.5772
2.149	0.5752
2.1619	0.5747
2.1748	0.5758
2.1878	0.5782
2.2007	0.582
2.2137	0.5871
2.2266	0.5935
2.2396	0.6014
2.2525	0.611
2.2655	0.6225
2.2784	0.6363
2.2914	0.6526
2.3043	0.672
2.3172	0.6948
2.3302	0.7215
2.3431	0.7525
2.3561	0.7881
2.369	0.8288
2.382	0.8746
2.3949	0.9254
2.4079	0.9808
2.4208	1.0399
2.4338	1.1016
2.4467	1.1644
2.4596	1.2264
2.4726	1.286
2.4855	1.3419
2.4985	1.3931
2.5114	1.4397
2.5244	1.4822
2.5373	1.5221
2.5503	1.5614
2.5632	1.6024
2.5762	1.6477
2.5891	1.6998
2.602	1.7608
2.615	1.8322
2.6279	1.9144
2.6409	2.0068
2.6538	2.1075
2.6668	2.2132
2.6797	2.3199
2.6927	2.4225
2.7056	2.5163
2.7186	2.5969
2.7315	2.661
2.7444	2.7067
2.7574	2.734
2.7703	2.7445
2.7833	2.7417
2.7962	2.7303
2.8092	2.7158
2.8221	2.7037
2.8351	2.6989
2.848	2.7048
2.861	2.7233
2.8739	2.7542
2.8868	2.7957
2.8998	2.8448
2.9127	2.8976
2.9257	2.9506
2.9386	3.0009
2.9516	3.0472
2.9645	3.09
2.9775	3.1315
2.9904	3.1753
3.0034	3.2256
3.0163	3.2865
3.0292	3.3613
3.0422	3.4515
3.0551	3.5571
3.0681	3.6765
3.081	3.8068
3.094	3.9441
3.1069	4.0845
3.1199	4.2242
3.1328	4.3597
3.1458	4.4876
3.1587	4.6053
3.1716	4.7102
3.1846	4.8003
3.1975	4.8744
3.2105	4.9322
3.2234	4.9746
3.2364	5.0035
3.2493	5.0223
3.2623	5.0353
3.2752	5.0475
3.2882	5.0646
3.3011	5.0921
3.314	5.1353
3.327	5.1986
3.3399	5.2856
3.3529	5.3984
3.3658	5.5379
3.3788	5.7033
3.3917	5.8924
3.4047	6.1014
3.4176	6.3254
3.4306	6.558
3.4435	6.7923
3.4564	7.0211
3.4694	7.2372
3.4823	7.4342
3.4953	7.607
3.5082	7.7514
3.5212	7.8651
3.5341	7.9476
3.5471	7.9998
3.56	8.0248
3.573	8.0273
3.5859	8.0131
3.5988	7.9892
3.6118	7.9627
3.6247	7.9403
3.6377	7.9279
3.6506	7.93
3.6636	7.9496
3.6765	7.9882
3.6895	8.0455
3.7024	8.1203
3.7154	8.2099
3.7283	8.311
3.7412	8.4199
3.7542	8.532
3.7671	8.6425
3.7801	8.7467
3.793	8.84
3.806	8.9186
3.8189	8.9801
3.8319	9.0244
3.8448	9.053
3.8578	9.0698
3.8707	9.08
3.8836	9.0892
3.8966	9.1025
3.9095	9.124
3.9225	9.1558
3.9354	9.1985
3.9484	9.2517
3.9613	9.3143
3.9743	9.3852
3.9872	9.4638
4.0002	9.5496
4.0131	9.6421
4.0261	9.7404
4.039	9.8432
4.0519	9.948
4.0649	10.0518
4.0778	10.1513
4.0908	10.2428
4.1037	10.3227
4.1167	10.3882
4.1296	10.4371
4.1426	10.468
4.1555	10.4808
4.1685	10.4762
4.1814	10.4557
4.1943	10.4211
4.2073	10.3742
4.2202	10.3172
4.2332	10.2518
4.2461	10.1799
4.2591	10.1032
4.272	10.0229
4.285	9.9399
4.2979	9.854
4.3109	9.7644
4.3238	9.6699
4.3367	9.5692
4.3497	9.4618
4.3626	9.3483
4.3756	9.2306
4.3885	9.1116
4.4015	8.9951
4.4144	8.8846
4.4274	8.7834
4.4403	8.6938
4.4533	8.6171
4.4662	8.5537
4.4791	8.5036
4.4921	8.4661
4.505	8.4409
4.518	8.4276
4.5309	8.4264
4.5439	8.4374
4.5568	8.4606
4.5698	8.4956
4.5827	8.5411
4.5957	8.5953
4.6086	8.6558
4.6215	8.72
4.6345	8.7859
4.6474	8.8517
4.6604	8.916
4.6733	8.9777
4.6863	9.0354
4.6992	9.0875
4.7122	9.1323
4.7251	9.1677
4.7381	9.192
4.751	9.2039
4.7639	9.2026
4.7769	9.1879
4.7898	9.1601
4.8028	9.12
4.8157	9.0681
4.8287	9.005
4.8416	8.9313
4.8546	8.8476
4.8675	8.7548
4.8805	8.6543
4.8934	8.5483
4.9063	8.4392
4.9193	8.3301
4.9322	8.2239
4.9452	8.1234
4.9581	8.031
4.9711	7.9485
4.984	7.877
4.997	7.8167
5.0099	7.7671
5.0229	7.7264
5.0358	7.6923
5.0487	7.6617
5.0617	7.6314
5.0746	7.5984
5.0876	7.5603
5.1005	7.5154
5.1135	7.463
5.1264	7.403
5.1394	7.3362
5.1523	7.2643
5.1653	7.1891
5.1782	7.1132
5.1911	7.0394
5.2041	6.9707
5.217	6.9098
5.23	6.8593
5.2429	6.8206
5.2559	6.7941
5.2688	6.7791
5.2818	6.7738
5.2947	6.7758
5.3077	6.7824
5.3206	6.7914
5.3335	6.801
5.3465	6.8095
5.3594	6.816
5.3724	6.819
5.3853	6.8172
5.3983	6.8087
5.4112	6.7922
5.4242	6.7662
5.4371	6.73
5.4501	6.6835
5.463	6.6274
5.4759	6.5627
5.4889	6.4907
5.5018	6.4131
5.5148	6.3318
5.5277	6.2488
5.5407	6.1666
5.5536	6.088
5.5666	6.0159
5.5795	5.9536
5.5925	5.9042
5.6054	5.8706
5.6183	5.8551
5.6313	5.8595
5.6442	5.8848
5.6572	5.9313
5.6701	5.9983
5.6831	6.0847
5.696	6.1885
5.709	6.3073
5.7219	6.4381
5.7349	6.5775
5.7478	6.7219
5.7607	6.8678
5.7737	7.0116
5.7866	7.1505
5.7996	7.2821
5.8125	7.4052
5.8255	7.5194
5.8384	7.6249
5.8514	7.7226
5.8643	7.813
5.8773	7.8969
5.8902	7.9741
5.9031	8.0442
5.9161	8.1063
5.929	8.1594
5.942	8.2028
5.9549	8.2361
5.9679	8.2602
5.9808	8.2763
5.9938	8.287
6.0067	8.2949
6.0197	8.3032
6.0326	8.3148
6.0455	8.3323
6.0585	8.3578
6.0714	8.3926
6.0844	8.4376
6.0973	8.4928
6.1103	8.5575
6.1232	8.6301
6.1362	8.7086
6.1491	8.7902
6.1621	8.8723
6.175	8.952
6.1879	9.0272
6.2009	9.0962
6.2138	9.158
6.2268	9.2124
6.2397	9.2598
6.2527	9.3011
6.2656	9.3377
6.2786	9.3713
6.2915	9.4038
6.3045	9.4375
6.3174	9.4749
6.3303	9.519
6.3433	9.5727
6.3562	9.6393
6.3692	9.7212
6.3821	9.8203
6.3951	9.9369
6.408	10.0697
6.421	10.2156
6.4339	10.3702
6.4469	10.5278
6.4598	10.6827
6.4727	10.8292
6.4857	10.9621
6.4986	11.0769
6.5116	11.1699
6.5245	11.2381
6.5375	11.2798
6.5504	11.2941
6.5634	11.2819
6.5763	11.2454
6.5893	11.1878
6.6022	11.1132
6.6151	11.0258
6.6281	10.9293
6.641	10.8266
6.654	10.7194
6.6669	10.6084
6.6799	10.4935
6.6928	10.3744
6.7058	10.2502
6.7187	10.1206
6.7317	9.9851
6.7446	9.8437
6.7576	9.6966
6.7705	9.5443
6.7834	9.388
6.7964	9.2293
6.8093	9.0707
6.8223	8.9156
6.8352	8.7675
6.8482	8.6302
6.8611	8.507
6.8741	8.4004
6.887	8.3117
6.9	8.2411
6.9129	8.1879
6.9258	8.1504
6.9388	8.1261
6.9517	8.1116
6.9647	8.1026
6.9776	8.0943
6.9906	8.0813
7.0035	8.0583
7.0165	8.0212
7.0294	7.9673
7.0424	7.8964
7.0553	7.8103
7.0682	7.7133
7.0812	7.6105
7.0941	7.5078
7.1071	7.4102
7.12	7.3217
7.133	7.2444
7.1459	7.179
7.1589	7.1243
7.1718	7.0784
7.1848	7.0385
7.1977	7.0014
7.2106	6.9641
7.2236	6.9238
7.2365	6.8784
7.2495	6.8262
7.2624	6.7668
7.2754	6.7
7.2883	6.627
7.3013	6.5489
7.3142	6.4674
7.3272	6.3838
7.3401	6.2993
7.353	6.2142
7.366	6.1284
7.3789	6.0416
7.3919	5.9534
7.4048	5.8641
7.4178	5.7744
7.4307	5.6862
7.4437	5.6016
7.4566	5.523
7.4696	5.4524
7.4825	5.3912
7.4954	5.3401
7.5084	5.2988
7.5213	5.2661
7.5343	5.2407
7.5472	5.2206
7.5602	5.2041
7.5731	5.1893
7.5861	5.1748
7.599	5.1591
7.612	5.1411
7.6249	5.1197
7.6378	5.0938
7.6508	5.0622
7.6637	5.0237
7.6767	4.9774
7.6896	4.9225
7.7026	4.8587
7.7155	4.7863
7.7285	4.7063
7.7414	4.6205
7.7544	4.5309
7.7673	4.4399
7.7802	4.3498
7.7932	4.2627
7.8061	4.1801
7.8191	4.1032
7.832	4.0326
7.845	3.9684
7.8579	3.9106
7.8709	3.859
7.8838	3.8131
7.8968	3.7726
7.9097	3.7374
7.9226	3.7073
7.9356	3.6824
7.9485	3.6624
7.9615	3.6471
7.9744	3.6358
7.9874	3.6276
8.0003	3.621
8.0133	3.6145
8.0262	3.6064
8.0392	3.5951
8.0521	3.5795
8.065	3.5587
8.078	3.5326
8.0909	3.5016
8.1039	3.4665
8.1168	3.4287
8.1298	3.3895
8.1427	3.3504
8.1557	3.313
8.1686	3.2785
8.1816	3.2478
8.1945	3.2217
8.2074	3.2004
8.2204	3.184
8.2333	3.172
8.2463	3.1638
8.2592	3.1583
8.2722	3.1544
8.2851	3.1508
8.2981	3.1463
8.311	3.1399
8.324	3.1307
8.3369	3.1185
8.3498	3.1033
8.3628	3.0858
8.3757	3.0669
8.3887	3.0477
8.4016	3.0294
8.4146	3.0132
8.4275	3
8.4405	2.9903
8.4534	2.9845
8.4664	2.9827
8.4793	2.9844
8.4922	2.9894
8.5052	2.9971
8.5181	3.0069
8.5311	3.0184
8.544	3.0313
8.557	3.0454
8.5699	3.061
8.5829	3.0781
8.5958	3.0973
8.6088	3.1186
8.6217	3.142
8.6346	3.1667
8.6476	3.1914
8.6605	3.2142
8.6735	3.2325
8.6864	3.2439
8.6994	3.2459
8.7123	3.237
8.7253	3.2165
8.7382	3.1848
8.7512	3.1434
8.7641	3.0946
8.777	3.0409
8.79	2.9852
8.8029	2.9299
8.8159	2.877
8.8288	2.8282
8.8418	2.7847
8.8547	2.7475
8.8677	2.7172
8.8806	2.6941
8.8936	2.6784
8.9065	2.6696
8.9194	2.6671
8.9324	2.67
8.9453	2.6772
8.9583	2.6875
8.9712	2.6997
8.9842	2.7127
8.9971	2.7255
9.0101	2.7372
9.023	2.7473
9.036	2.7554
9.0489	2.7613
9.0618	2.7654
9.0748	2.7679
9.0877	2.7696
9.1007	2.7712
9.1136	2.7734
9.1266	2.7768
9.1395	2.7816
9.1525	2.7878
9.1654	2.7949
9.1784	2.8023
9.1913	2.8094
9.2042	2.8155
9.2172	2.8203
9.2301	2.8239
9.2431	2.8266
9.256	2.8292
9.269	2.8326
9.2819	2.8374
9.2949	2.8444
9.3078	2.8538
9.3208	2.8654
9.3337	2.8787
9.3466	2.8931
9.3596	2.9077
9.3725	2.9219
9.3855	2.9349
9.3984	2.9462
9.4114	2.9553
9.4243	2.9619
9.4373	2.9657
9.4502	2.9662
9.4632	2.9631
9.4761	2.9561
9.4891	2.9446
9.502	2.9286
9.5149	2.9081
9.5279	2.8834
9.5408	2.8554
9.5538	2.8251
9.5667	2.7939
9.5797	2.7631
9.5926	2.7341
9.6056	2.7079
9.6185	2.6852
9.6315	2.6662
9.6444	2.6509
9.6573	2.6388
9.6703	2.6294
9.6832	2.6224
9.6962	2.6176
9.7091	2.615
9.7221	2.6149
9.735	2.6175
9.748	2.6232
9.7609	2.6319
9.7739	2.6435
9.7868	2.6577
9.7997	2.6741
9.8127	2.6922
9.8256	2.7116
9.8386	2.732
9.8515	2.7529
9.8645	2.7738
9.8774	2.794
9.8904	2.8128
9.9033	2.8296
9.9163	2.844
9.9292	2.8559
9.9421	2.8656
9.9551	2.8737
9.968	2.8812
9.981	2.889
9.9939	2.898
10.0069	2.9088
10.0198	2.9217
10.0328	2.9366
10.0457	2.953
10.0587	2.9703
10.0716	2.9874
10.0845	3.0035
10.0975	3.0176
10.1104	3.0287
10.1234	3.0359
10.1363	3.0383
10.1493	3.0354
10.1622	3.0267
10.1752	3.012
10.1881	2.9917
10.2011	2.9661
10.214	2.9361
10.2269	2.9027
10.2399	2.8669
10.2528	2.8297
10.2658	2.7918
10.2787	2.7537
10.2917	2.7156
10.3046	2.6776
10.3176	2.6393
10.3305	2.6007
10.3435	2.5614
10.3564	2.5214
10.3693	2.4809
10.3823	2.4402
10.3952	2.3998
10.4082	2.3601
10.4211	2.3219
10.4341	2.2853
10.447	2.2508
10.46	2.2182
10.4729	2.1876
10.4859	2.1587
10.4988	2.1312
10.5117	2.1049
10.5247	2.0797
10.5376	2.0555
10.5506	2.0325
10.5635	2.0108
10.5765	1.9907
10.5894	1.9726
10.6024	1.9569
10.6153	1.9438
10.6283	1.9337
10.6412	1.9267
10.6541	1.9229
10.6671	1.9221
10.68	1.9242
10.693	1.929
10.7059	1.9359
10.7189	1.9445
10.7318	1.9541
10.7448	1.9641
10.7577	1.974
10.7707	1.9832
10.7836	1.9914
10.7965	1.9983
10.8095	2.0038
10.8224	2.0082
10.8354	2.0115
10.8483	2.0138
10.8613	2.0151
10.8742	2.0153
10.8872	2.0142
10.9001	2.0114
10.9131	2.0063
10.926	1.9984
10.9389	1.9873
10.9519	1.9728
10.9648	1.9548
10.9778	1.9335
10.9907	1.9093
11.0037	1.8828
11.0166	1.8548
11.0296	1.8259
11.0425	1.7968
11.0555	1.7682
11.0684	1.7406
11.0813	1.7144
11.0943	1.6898
11.1072	1.6667
11.1202	1.6452
11.1331	1.6251
11.1461	1.6062
11.159	1.5884
11.172	1.5716
11.1849	1.5559
11.1979	1.5412
11.2108	1.5276
11.2237	1.5148
11.2367	1.5027
11.2496	1.4912
11.2626	1.4798
11.2755	1.4686
11.2885	1.4575
11.3014	1.4466
11.3144	1.4362
11.3273	1.4268
11.3403	1.4186
11.3532	1.4119
11.3661	1.4069
11.3791	1.4036
11.392	1.4017
11.405	1.4011
11.4179	1.4012
11.4309	1.4018
11.4438	1.4024
11.4568	1.4028
11.4697	1.4027
11.4827	1.402
11.4956	1.4006
11.5085	1.3985
11.5215	1.3956
11.5344	1.3917
11.5474	1.3869
11.5603	1.381
11.5733	1.374
11.5862	1.3658
11.5992	1.3565
11.6121	1.3461
11.6251	1.3349
11.638	1.3229
11.6509	1.3105
11.6639	1.2979
11.6768	1.2851
11.6898	1.2723
11.7027	1.2596
11.7157	1.247
11.7286	1.2346
11.7416	1.2223
11.7545	1.2101
11.7675	1.1981
11.7804	1.1863
11.7933	1.1746
11.8063	1.1632
11.8192	1.1523
11.8322	1.142
11.8451	1.1324
11.8581	1.1238
11.871	1.1162
11.884	1.1096
11.8969	1.104
11.9099	1.0994
11.9228	1.0957
11.9357	1.093
11.9487	1.091
11.9616	1.0898
11.9746	1.0893
11.9875	1.0893
12.0005	1.0895
12.0134	1.0896
12.0264	1.0893
12.0393	1.0883
12.0523	1.0864
12.0652	1.0836
12.0782	1.0801
12.0911	1.0759
12.104	1.0714
12.117	1.0668
12.1299	1.0625
12.1429	1.0587
12.1558	1.0556
12.1688	1.0534
12.1817	1.0521
12.1947	1.0517
12.2076	1.0522
12.2206	1.0534
12.2335	1.0553
12.2464	1.0575
12.2594	1.0599
12.2723	1.0622
12.2853	1.0642
12.2982	1.0656
12.3112	1.0662
12.3241	1.0659
12.3371	1.0646
12.35	1.0622
12.363	1.0588
12.3759	1.0543
12.3888	1.0491
12.4018	1.0431
12.4147	1.0366
12.4277	1.0299
12.4406	1.0233
12.4536	1.017
12.4665	1.0116
12.4795	1.0071
12.4924	1.004
12.5054	1.0023
12.5183	1.0022
12.5312	1.0035
12.5442	1.0061
12.5571	1.0098
12.5701	1.014
12.583	1.0185
12.596	1.0228
12.6089	1.0265
12.6219	1.0295
12.6348	1.0315
12.6478	1.0326
12.6607	1.0328
12.6736	1.0324
12.6866	1.0315
12.6995	1.0303
12.7125	1.0288
12.7254	1.0269
12.7384	1.0245
12.7513	1.0211
12.7643	1.0164
12.7772	1.0102
12.7902	1.0021
12.8031	0.9922
12.816	0.9803
12.829	0.9667
12.8419	0.9517
12.8549	0.9356
12.8678	0.9187
12.8808	0.9015
12.8937	0.8843
12.9067	0.8675
12.9196	0.8512
12.9326	0.8359
12.9455	0.8216
12.9584	0.8085
12.9714	0.7968
12.9843	0.7864
12.9973	0.7775
13.0102	0.7699
13.0232	0.7638
13.0361	0.7591
13.0491	0.7558
13.062	0.7538
13.075	0.7533
13.0879	0.754
13.1008	0.7561
13.1138	0.7595
13.1267	0.764
13.1397	0.7697
13.1526	0.7764
13.1656	0.7837
13.1785	0.7916
13.1915	0.7995
13.2044	0.8071
13.2174	0.8142
13.2303	0.8203
13.2432	0.8253
13.2562	0.8291
13.2691	0.8315
13.2821	0.8327
13.295	0.8329
13.308	0.8323
13.3209	0.8312
13.3339	0.8296
13.3468	0.8278
13.3598	0.8259
13.3727	0.8237
13.3856	0.8213
13.3986	0.8186
13.4115	0.8154
13.4245	0.8115
13.4374	0.807
13.4504	0.8016
13.4633	0.7955
13.4763	0.7886
13.4892	0.781
13.5022	0.7728
13.5151	0.7642
13.528	0.7551
13.541	0.7459
13.5539	0.7364
13.5669	0.7268
13.5798	0.7171
13.5928	0.7073
13.6057	0.6975
13.6187	0.6876
13.6316	0.6777
13.6446	0.6679
13.6575	0.6583
13.6704	0.649
13.6834	0.64
13.6963	0.6316
13.7093	0.6239
13.7222	0.6169
13.7352	0.6108
13.7481	0.6055
13.7611	0.6011
13.774	0.5977
13.787	0.5952
13.7999	0.5937
13.8128	0.5931
13.8258	0.5934
13.8387	0.5946
13.8517	0.5964
13.8646	0.5987
13.8776	0.6014
13.8905	0.6041
13.9035	0.6067
13.9164	0.609
13.9294	0.6107
13.9423	0.6119
13.9552	0.6123
13.9682	0.612
13.9811	0.6108
13.9941	0.6089
14.007	0.6063
14.02	0.603
14.0329	0.5991
14.0459	0.595
14.0588	0.5907
14.0718	0.5864
14.0847	0.5822
14.0976	0.5783
14.1106	0.5747
14.1235	0.5714
14.1365	0.5684
14.1494	0.5658
14.1624	0.5633
14.1753	0.5611
14.1883	0.559
14.2012	0.5569
14.2142	0.555
14.2271	0.553
14.24	0.5512
14.253	0.5494
14.2659	0.5477
14.2789	0.5461
14.2918	0.5446
14.3048	0.5432
14.3177	0.542
14.3307	0.541
14.3436	0.5401
14.3566	0.5393
14.3695	0.5387
14.3824	0.5382
14.3954	0.5375
14.4083	0.5367
14.4213	0.5356
14.4342	0.5341
14.4472	0.5321
14.4601	0.5296
14.4731	0.5267
14.486	0.5233
14.499	0.5196
14.5119	0.5157
14.5248	0.5115
14.5378	0.5074
14.5507	0.5032
14.5637	0.499
14.5766	0.4949
14.5896	0.4908
14.6025	0.4868
14.6155	0.4827
14.6284	0.4787
14.6414	0.4746
14.6543	0.4705
14.6672	0.4663
14.6802	0.4621
14.6931	0.4579
14.7061	0.4537
14.719	0.4495
14.732	0.4454
14.7449	0.4415
14.7579	0.4379
14.7708	0.4346
14.7838	0.4316
14.7967	0.4289
14.8097	0.4266
14.8226	0.4244
14.8355	0.4223
14.8485	0.4202
14.8614	0.418
14.8744	0.4157
14.8873	0.4131
14.9003	0.4103
14.9132	0.4071
14.9262	0.4035
14.9391	0.3995
14.9521	0.3952
14.965	0.3906
14.9779	0.3857
14.9909	0.3806
15.0038	0.3753
15.0168	0.37
15.0297	0.3647
15.0427	0.3596
15.0556	0.3546
15.0686	0.3498
15.0815	0.3453
15.0945	0.3411
15.1074	0.337
15.1203	0.3333
15.1333	0.3298
15.1462	0.3265
15.1592	0.3235
15.1721	0.3207
15.1851	0.3181
15.198	0.3158
15.211	0.3137
15.2239	0.3118
15.2369	0.3101
15.2498	0.3086
15.2627	0.3072
15.2757	0.3059
15.2886	0.3046
15.3016	0.3033
15.3145	0.3021
15.3275	0.3009
15.3404	0.2999
15.3534	0.2989
15.3663	0.298
15.3793	0.2972
15.3922	0.2965
15.4051	0.2959
15.4181	0.2954
15.431	0.2949
15.444	0.2944
15.4569	0.2939
15.4699	0.2934
15.4828	0.2928
15.4958	0.2922
15.5087	0.2915
15.5217	0.2907
15.5346	0.2897
15.5475	0.2884
15.5605	0.2868
15.5734	0.2846
15.5864	0.282
15.5993	0.2788
15.6123	0.2752
15.6252	0.2712
15.6382	0.2668
15.6511	0.2623
15.6641	0.2577
15.677	0.2531
15.6899	0.2486
15.7029	0.2444
15.7158	0.2405
15.7288	0.237
15.7417	0.2338
15.7547	0.2309
15.7676	0.2284
15.7806	0.2262
15.7935	0.2242
15.8065	0.2224
15.8194	0.2207
15.8323	0.2191
15.8453	0.2175
15.8582	0.2159
15.8712	0.2143
15.8841	0.2127
15.8971	0.2111
15.91	0.2094
15.923	0.2076
15.9359	0.2057
15.9489	0.2037
15.9618	0.2017
15.9747	0.1996
15.9877	0.1975
16.0006	0.1953
16.0136	0.1931
16.0265	0.1909
16.0395	0.1887
16.0524	0.1866
16.0654	0.1844
16.0783	0.1822
16.0913	0.18
16.1042	0.1779
16.1171	0.1758
16.1301	0.1738
16.143	0.1719
16.156	0.1701
16.1689	0.1685
16.1819	0.167
16.1948	0.1656
16.2078	0.1643
16.2207	0.1632
16.2337	0.162
16.2466	0.1609
16.2595	0.1598
16.2725	0.1588
16.2854	0.1579
16.2984	0.157
16.3113	0.1562
16.3243	0.1554
16.3372	0.1548
16.3502	0.1542
16.3631	0.1537
16.3761	0.1532
16.389	0.1527
16.4019	0.1522
16.4149	0.1516
16.4278	0.151
16.4408	0.1504
16.4537	0.1497
16.4667	0.1488
16.4796	0.1479
16.4926	0.1468
16.5055	0.1456
16.5185	0.1443
16.5314	0.1429
16.5443	0.1415
16.5573	0.1401
16.5702	0.1387
16.5832	0.1374
16.5961	0.1363
16.6091	0.1353
16.622	0.1345
16.635	0.1338
16.6479	0.1333
16.6609	0.1328
16.6738	0.1324
16.6867	0.1319
16.6997	0.1314
16.7126	0.1309
16.7256	0.1303
16.7385	0.1296
16.7515	0.1289
16.7644	0.1281
16.7774	0.1273
16.7903	0.1264
16.8033	0.1256
16.8162	0.1248
16.8291	0.124
16.8421	0.1233
16.855	0.1226
16.868	0.122
16.8809	0.1215
16.8939	0.121
16.9068	0.1206
16.9198	0.1202
16.9327	0.1197
16.9457	0.1194
16.9586	0.119
16.9715	0.1186
16.9845	0.1183
16.9974	0.1179
17.0104	0.1177
17.0233	0.1174
17.0363	0.1172
17.0492	0.1171
17.0622	0.1169
17.0751	0.1167
17.0881	0.1164
17.101	0.116
17.1139	0.1155
17.1269	0.1149
17.1398	0.1142
17.1528	0.1133
17.1657	0.1123
17.1787	0.1113
17.1916	0.1102
17.2046	0.1091
17.2175	0.108
17.2305	0.1071
17.2434	0.1062
17.2563	0.1054
17.2693	0.1048
17.2822	0.1043
17.2952	0.1039
17.3081	0.1035
17.3211	0.1032
17.334	0.1027
17.347	0.1022
17.3599	0.1016
17.3729	0.1008
17.3858	0.0998
17.3987	0.0987
17.4117	0.0975
17.4246	0.0961
17.4376	0.0947
17.4505	0.0933
17.4635	0.0918
17.4764	0.0904
17.4894	0.0889
17.5023	0.0874
17.5153	0.086
17.5282	0.0845
17.5412	0.0831
17.5541	0.0818
17.567	0.0805
17.58	0.0792
17.5929	0.078
17.6059	0.0768
17.6188	0.0757
17.6318	0.0746
17.6447	0.0736
17.6577	0.0725
17.6706	0.0713
17.6836	0.0701
17.6965	0.0689
17.7094	0.0676
17.7224	0.0663
17.7353	0.065
17.7483	0.0638
17.7612	0.0626
17.7742	0.0615
17.7871	0.0604
17.8001	0.0594
17.813	0.0586
17.826	0.0578
17.8389	0.0571
17.8518	0.0564
17.8648	0.0558
17.8777	0.0551
17.8907	0.0545
17.9036	0.0539
17.9166	0.0533
17.9295	0.0526
17.9425	0.052
17.9554	0.0513
17.9684	0.0507
17.9813	0.0501
17.9942	0.0495
18.0072	0.049
18.0201	0.0486
18.0331	0.0482
18.046	0.048
18.059	0.0477
18.0719	0.0476
18.0849	0.0475
18.0978	0.0474
18.1108	0.0474
18.1237	0.0474
18.1366	0.0473
18.1496	0.0473
18.1625	0.0472
18.1755	0.0471
18.1884	0.047
18.2014	0.0469
18.2143	0.0467
18.2273	0.0465
18.2402	0.0463
18.2532	0.046
18.2661	0.0458
18.279	0.0456
18.292	0.0454
18.3049	0.0452
18.3179	0.045
18.3308	0.045
18.3438	0.0449
18.3567	0.0449
18.3697	0.045
18.3826	0.045
18.3956	0.0451
18.4085	0.0451
18.4214	0.0452
18.4344	0.0452
18.4473	0.0451
18.4603	0.045
18.4732	0.0449
18.4862	0.0447
18.4991	0.0445
18.5121	0.0443
18.525	0.0441
18.538	0.0439
18.5509	0.0437
18.5638	0.0435
18.5768	0.0433
18.5897	0.0431
18.6027	0.0429
18.6156	0.0427
18.6286	0.0425
18.6415	0.0423
18.6545	0.0421
18.6674	0.042
18.6804	0.0418
18.6933	0.0417
18.7062	0.0416
18.7192	0.0415
18.7321	0.0415
18.7451	0.0414
18.758	0.0414
18.771	0.0414
18.7839	0.0415
18.7969	0.0416
18.8098	0.0417
18.8228	0.0419
18.8357	0.0421
18.8486	0.0423
18.8616	0.0425
18.8745	0.0428
18.8875	0.043
18.9004	0.0433
18.9134	0.0435
18.9263	0.0437
18.9393	0.0439
18.9522	0.0441
18.9652	0.0442
18.9781	0.0444
18.991	0.0445
19.004	0.0446
19.0169	0.0448
19.0299	0.0449
19.0428	0.0451
19.0558	0.0453
19.0687	0.0455
19.0817	0.0457
19.0946	0.046
19.1076	0.0463
19.1205	0.0466
19.1334	0.0469
19.1464	0.0472
19.1593	0.0476
19.1723	0.048
19.1852	0.0484
19.1982	0.0489
19.2111	0.0494
19.2241	0.05
19.237	0.0506
19.25	0.0512
19.2629	0.0518
19.2758	0.0525
19.2888	0.0531
19.3017	0.0538
19.3147	0.0544
19.3276	0.055
19.3406	0.0557
19.3535	0.0563
19.3665	0.0569
19.3794	0.0576
19.3924	0.0582
19.4053	0.0588
19.4182	0.0594
19.4312	0.06
19.4441	0.0606
19.4571	0.0611
19.47	0.0616
19.483	0.0621
19.4959	0.0626
19.5089	0.063
19.5218	0.0635
19.5348	0.0639
19.5477	0.0644
19.5606	0.065
19.5736	0.0656
19.5865	0.0663
19.5995	0.0671
19.6124	0.068
19.6254	0.069
19.6383	0.0701
19.6513	0.0712
19.6642	0.0723
19.6772	0.0734
19.6901	0.0745
19.703	0.0754
19.716	0.0763
19.7289	0.0771
19.7419	0.0777
19.7548	0.0782
19.7678	0.0786
19.7807	0.0789
19.7937	0.0792
19.8066	0.0794
19.8196	0.0796
19.8325	0.0798
19.8454	0.0801
19.8584	0.0805
19.8713	0.0809
19.8843	0.0815
19.8972	0.0822
19.9102	0.0829
19.9231	0.0837
19.9361	0.0846
19.949	0.0855
19.962	0.0863
19.9749	0.0872
19.9878	0.088
20.0008	0.0887
20.0137	0.0894
20.0267	0.0901
20.0396	0.0907
20.0526	0.0912
20.0655	0.0917
20.0785	0.092
20.0914	0.0923
20.1044	0.0925
20.1173	0.0927
20.1303	0.0927
20.1432	0.0926
20.1561	0.0925
20.1691	0.0922
20.182	0.0919
20.195	0.0915
20.2079	0.091
20.2209	0.0906
20.2338	0.0901
20.2468	0.0896
20.2597	0.0891
20.2727	0.0886
20.2856	0.0881
20.2985	0.0876
20.3115	0.0871
20.3244	0.0864
20.3374	0.0858
20.3503	0.0851
20.3633	0.0844
20.3762	0.0836
20.3892	0.0829
20.4021	0.0823
20.4151	0.0817
20.428	0.0812
20.4409	0.0808
20.4539	0.0806
20.4668	0.0804
20.4798	0.0804
20.4927	0.0806
20.5057	0.0808
20.5186	0.0812
20.5316	0.0815
20.5445	0.0819
20.5575	0.0823
20.5704	0.0825
20.5833	0.0827
20.5963	0.0827
20.6092	0.0825
20.6222	0.0822
20.6351	0.0817
20.6481	0.0811
20.661	0.0803
20.674	0.0795
20.6869	0.0787
20.6999	0.0777
20.7128	0.0768
20.7257	0.0759
20.7387	0.0749
20.7516	0.0741
20.7646	0.0732
20.7775	0.0724
20.7905	0.0717
20.8034	0.0711
20.8164	0.0705
20.8293	0.0699
20.8423	0.0694
20.8552	0.0689
20.8681	0.0683
20.8811	0.0678
20.894	0.0673
20.907	0.0668
20.9199	0.0663
20.9329	0.0659
20.9458	0.0656
20.9588	0.0653
20.9717	0.0652
20.9847	0.0652
20.9976	0.0654
21.0105	0.0657
21.0235	0.0661
21.0364	0.0667
21.0494	0.0675
21.0623	0.0683
21.0753	0.0693
21.0882	0.0703
21.1012	0.0714
21.1141	0.0726
21.1271	0.0738
21.14	0.0751
21.1529	0.0763
21.1659	0.0777
21.1788	0.079
21.1918	0.0803
21.2047	0.0817
21.2177	0.0831
21.2306	0.0846
21.2436	0.0861
21.2565	0.0876
21.2695	0.0891
21.2824	0.0907
21.2953	0.0923
21.3083	0.0939
21.3212	0.0955
21.3342	0.097
21.3471	0.0984
21.3601	0.0998
21.373	0.1012
21.386	0.1025
21.3989	0.1039
21.4119	0.1052
21.4248	0.1066
21.4377	0.1081
21.4507	0.1097
21.4636	0.1113
21.4766	0.1131
21.4895	0.115
21.5025	0.1171
21.5154	0.1192
21.5284	0.1214
21.5413	0.1236
21.5543	0.1258
21.5672	0.1277
21.5801	0.1295
21.5931	0.131
21.606	0.1321
21.619	0.1328
21.6319	0.1331
21.6449	0.133
21.6578	0.1325
21.6708	0.1318
21.6837	0.1309
21.6967	0.1299
21.7096	0.1289
21.7225	0.128
21.7355	0.1273
21.7484	0.1269
21.7614	0.1268
21.7743	0.127
21.7873	0.1276
21.8002	0.1285
21.8132	0.1297
21.8261	0.1311
21.8391	0.1326
21.852	0.1341
21.8649	0.1356
21.8779	0.137
21.8908	0.1382
21.9038	0.1391
21.9167	0.1398
21.9297	0.1403
21.9426	0.1405
21.9556	0.1406
21.9685	0.1405
21.9815	0.1403
21.9944	0.14
22.0073	0.1398
22.0203	0.1395
22.0332	0.1394
22.0462	0.1393
22.0591	0.1393
22.0721	0.1395
22.085	0.1398
22.098	0.1402
22.1109	0.1407
22.1239	0.1412
22.1368	0.1416
22.1497	0.1421
22.1627	0.1424
22.1756	0.1425
22.1886	0.1424
22.2015	0.1422
22.2145	0.1417
22.2274	0.141
22.2404	0.1402
22.2533	0.1392
22.2663	0.1382
22.2792	0.1372
22.2921	0.1361
22.3051	0.1351
22.318	0.1342
22.331	0.1333
22.3439	0.1326
22.3569	0.1318
22.3698	0.1311
22.3828	0.1304
22.3957	0.1297
22.4087	0.1289
22.4216	0.128
22.4345	0.1269
22.4475	0.1257
22.4604	0.1241
22.4734	0.1224
22.4863	0.1205
22.4993	0.1185
22.5122	0.1163
22.5252	0.1141
22.5381	0.112
22.5511	0.1099
22.564	0.1079
22.5769	0.106
22.5899	0.1043
22.6028	0.1027
22.6158	0.1014
22.6287	0.1001
22.6417	0.099
22.6546	0.0979
22.6676	0.0969
22.6805	0.096
22.6935	0.095
22.7064	0.0939
22.7193	0.0929
22.7323	0.0918
22.7452	0.0906
22.7582	0.0895
22.7711	0.0883
22.7841	0.0871
22.797	0.086
22.81	0.0849
22.8229	0.0838
22.8359	0.0828
22.8488	0.0818
22.8618	0.0809
22.8747	0.08
22.8876	0.0792
22.9006	0.0784
22.9135	0.0777
22.9265	0.077
22.9394	0.0764
22.9524	0.0757
22.9653	0.075
22.9783	0.0744
22.9912	0.0737
23.0042	0.0729
23.0171	0.0722
23.03	0.0714
23.043	0.0706
23.0559	0.0698
23.0689	0.069
23.0818	0.0683
23.0948	0.0676
23.1077	0.067
23.1207	0.0664
23.1336	0.0658
23.1466	0.0653
23.1595	0.0647
23.1724	0.0642
23.1854	0.0637
23.1983	0.0631
23.2113	0.0625
23.2242	0.0619
23.2372	0.0613
23.2501	0.0606
23.2631	0.06
23.276	0.0593
23.289	0.0586
23.3019	0.058
23.3148	0.0573
23.3278	0.0566
23.3407	0.0559
23.3537	0.0553
23.3666	0.0546
23.3796	0.054
23.3925	0.0534
23.4055	0.0529
23.4184	0.0523
23.4314	0.0518
23.4443	0.0514
23.4572	0.0509
23.4702	0.0504
23.4831	0.0499
23.4961	0.0493
23.509	0.0487
23.522	0.0481
23.5349	0.0475
23.5479	0.0468
23.5608	0.0461
23.5738	0.0455
23.5867	0.0448
23.5996	0.0442
23.6126	0.0436
23.6255	0.0431
23.6385	0.0426
23.6514	0.0422
23.6644	0.0418
23.6773	0.0415
23.6903	0.0412
23.7032	0.041
23.7162	0.0408
23.7291	0.0406
23.742	0.0405
23.755	0.0403
23.7679	0.0402
23.7809	0.0401
23.7938	0.0399
23.8068	0.0398
23.8197	0.0397
23.8327	0.0396
23.8456	0.0395
23.8586	0.0394
23.8715	0.0394
23.8844	0.0394
23.8974	0.0394
23.9103	0.0395
23.9233	0.0396
23.9362	0.0398
23.9492	0.0399
23.9621	0.0401
23.9751	0.0404
23.988	0.0406
24.001	0.0409
24.0139	0.0412
24.0268	0.0414
24.0398	0.0418
24.0527	0.0421
24.0657	0.0424
24.0786	0.0428
24.0916	0.0432
24.1045	0.0437
24.1175	0.0442
24.1304	0.0448
24.1434	0.0454
24.1563	0.0462
24.1692	0.047
24.1822	0.0478
24.1951	0.0487
24.2081	0.0495
24.221	0.0504
24.234	0.0511
24.2469	0.0518
24.2599	0.0523
24.2728	0.0528
24.2858	0.0532
24.2987	0.0534
24.3116	0.0536
24.3246	0.0537
24.3375	0.0538
24.3505	0.0538
24.3634	0.0538
24.3764	0.0539
24.3893	0.054
24.4023	0.0541
24.4152	0.0543
24.4282	0.0545
24.4411	0.0548
24.454	0.055
24.467	0.0553
24.4799	0.0555
24.4929	0.0557
24.5058	0.0559
24.5188	0.056
24.5317	0.0561
24.5447	0.0561
24.5576	0.0562
24.5706	0.0562
24.5835	0.0563
24.5964	0.0564
24.6094	0.0565
24.6223	0.0567
24.6353	0.0569
24.6482	0.0571
24.6612	0.0573
24.6741	0.0575
24.6871	0.0578
24.7	0.058
24.713	0.0582
24.7259	0.0584
24.7388	0.0585
24.7518	0.0587
24.7647	0.0588
24.7777	0.0589
24.7906	0.059
24.8036	0.0591
24.8165	0.0591
24.8295	0.059
24.8424	0.0589
24.8554	0.0588
24.8683	0.0586
24.8812	0.0583
24.8942	0.0581
24.9071	0.0578
24.9201	0.0576
24.933	0.0575
24.946	0.0574
24.9589	0.0575
24.9719	0.0576
24.9848	0.0578
24.9978	0.0582
25.0107	0.0586
25.0236	0.0591
25.0366	0.0596
25.0495	0.0601
25.0625	0.0607
25.0754	0.0612
25.0884	0.0616
25.1013	0.062
25.1143	0.0622
25.1272	0.0624
25.1402	0.0624
25.1531	0.0624
25.166	0.0622
25.179	0.062
25.1919	0.0618
25.2049	0.0615
25.2178	0.0612
25.2308	0.061
25.2437	0.0607
25.2567	0.0605
25.2696	0.0604
25.2826	0.0602
25.2955	0.0601
25.3084	0.0601
25.3214	0.06
25.3343	0.0599
25.3473	0.0599
25.3602	0.0598
25.3732	0.0598
25.3861	0.0597
25.3991	0.0596
25.412	0.0594
25.425	0.0593
25.4379	0.0591
25.4508	0.059
25.4638	0.0588
25.4767	0.0586
25.4897	0.0585
25.5026	0.0583
25.5156	0.0582
25.5285	0.0581
25.5415	0.058
25.5544	0.0579
25.5674	0.0579
25.5803	0.0579
25.5933	0.058
25.6062	0.0581
25.6191	0.0582
25.6321	0.0585
25.645	0.0587
25.658	0.0589
25.6709	0.0592
25.6839	0.0593
25.6968	0.0594
25.7098	0.0594
25.7227	0.0593
25.7357	0.0591
25.7486	0.0587
25.7615	0.0582
25.7745	0.0576
25.7874	0.0569
25.8004	0.0562
25.8133	0.0554
25.8263	0.0547
25.8392	0.054
25.8522	0.0534
25.8651	0.0529
25.8781	0.0525
25.891	0.0522
25.9039	0.052
25.9169	0.052
25.9298	0.052
25.9428	0.0522
25.9557	0.0524
25.9687	0.0527
25.9816	0.053
25.9946	0.0533
26.0075	0.0536
26.0205	0.0539
26.0334	0.0542
26.0463	0.0544
26.0593	0.0545
26.0722	0.0545
26.0852	0.0544
26.0981	0.0542
26.1111	0.0539
26.124	0.0535
26.137	0.0529
26.1499	0.0524
26.1629	0.0518
26.1758	0.0512
26.1887	0.0506
26.2017	0.0501
26.2146	0.0497
26.2276	0.0493
26.2405	0.049
26.2535	0.0487
26.2664	0.0485
26.2794	0.0484
26.2923	0.0483
26.3053	0.0483
26.3182	0.0483
26.3311	0.0484
26.3441	0.0486
26.357	0.0488
26.37	0.049
26.3829	0.0492
26.3959	0.0495
26.4088	0.0497
26.4218	0.05
26.4347	0.0502
26.4477	0.0503
26.4606	0.0504
26.4735	0.0505
26.4865	0.0506
26.4994	0.0506
26.5124	0.0506
26.5253	0.0505
26.5383	0.0504
26.5512	0.0502
26.5642	0.0501
26.5771	0.0499
26.5901	0.0497
26.603	0.0495
26.6159	0.0492
26.6289	0.049
26.6418	0.0488
26.6548	0.0485
26.6677	0.0483
26.6807	0.0481
26.6936	0.048
26.7066	0.0478
26.7195	0.0477
26.7325	0.0476
26.7454	0.0475
26.7583	0.0475
26.7713	0.0474
26.7842	0.0474
26.7972	0.0474
26.8101	0.0474
26.8231	0.0474
26.836	0.0474
26.849	0.0474
26.8619	0.0474
26.8749	0.0475
26.8878	0.0475
26.9007	0.0475
26.9137	0.0476
26.9266	0.0476
26.9396	0.0476
26.9525	0.0477
26.9655	0.0477
26.9784	0.0478
26.9914	0.0479
27.0043	0.0481
27.0173	0.0482
27.0302	0.0484
27.0431	0.0485
27.0561	0.0486
27.069	0.0487
27.082	0.0488
27.0949	0.0488
27.1079	0.0487
27.1208	0.0486
27.1338	0.0485
27.1467	0.0483
27.1597	0.0481
27.1726	0.0479
27.1855	0.0478
27.1985	0.0476
27.2114	0.0475
27.2244	0.0475
27.2373	0.0475
27.2503	0.0475
27.2632	0.0475
27.2762	0.0476
27.2891	0.0476
27.3021	0.0477
27.315	0.0477
27.3279	0.0477
27.3409	0.0476
27.3538	0.0476
27.3668	0.0475
27.3797	0.0475
27.3927	0.0474
27.4056	0.0474
27.4186	0.0475
27.4315	0.0475
27.4445	0.0476
27.4574	0.0477
27.4703	0.0478
27.4833	0.0479
27.4962	0.0479
27.5092	0.048
27.5221	0.048
27.5351	0.0479
27.548	0.0479
27.561	0.0477
27.5739	0.0476
27.5869	0.0474
27.5998	0.0472
27.6127	0.0469
27.6257	0.0467
27.6386	0.0464
27.6516	0.0462
27.6645	0.0459
27.6775	0.0456
27.6904	0.0453
27.7034	0.0451
27.7163	0.0448
27.7293	0.0445
27.7422	0.0443
27.7551	0.0441
27.7681	0.0439
27.781	0.0437
27.794	0.0435
27.8069	0.0433
27.8199	0.0431
27.8328	0.0429
27.8458	0.0428
27.8587	0.0426
27.8717	0.0424
27.8846	0.0423
27.8975	0.0421
27.9105	0.042
27.9234	0.0418
27.9364	0.0416
27.9493	0.0415
27.9623	0.0414
27.9752	0.0413
27.9882	0.0411
28.0011	0.041
28.0141	0.0409
28.027	0.0409
28.0399	0.0407
28.0529	0.0406
28.0658	0.0405
28.0788	0.0404
28.0917	0.0403
28.1047	0.0401
28.1176	0.04
28.1306	0.0398
28.1435	0.0397
28.1565	0.0396
28.1694	0.0395
28.1824	0.0393
28.1953	0.0393
28.2082	0.0392
28.2212	0.0391
28.2341	0.0391
28.2471	0.039
28.26	0.039
28.273	0.0389
28.2859	0.0389
28.2989	0.0388
28.3118	0.0387
28.3248	0.0386
28.3377	0.0384
28.3506	0.0383
28.3636	0.0381
28.3765	0.038
28.3895	0.0378
28.4024	0.0377
28.4154	0.0375
28.4283	0.0374
28.4413	0.0372
28.4542	0.0371
28.4672	0.0369
28.4801	0.0368
28.493	0.0367
28.506	0.0365
28.5189	0.0364
28.5319	0.0363
28.5448	0.0362
28.5578	0.0361
28.5707	0.036
28.5837	0.0359
28.5966	0.0359
28.6096	0.0358
28.6225	0.0358
28.6354	0.0357
28.6484	0.0356
28.6613	0.0356
28.6743	0.0355
28.6872	0.0354
28.7002	0.0353
28.7131	0.0351
28.7261	0.035
28.739	0.0349
28.752	0.0348
28.7649	0.0347
28.7778	0.0346
28.7908	0.0346
28.8037	0.0345
28.8167	0.0345
28.8296	0.0344
28.8426	0.0343
28.8555	0.0343
28.8685	0.0342
28.8814	0.0342
28.8944	0.0341
28.9073	0.034
28.9202	0.0338
28.9332	0.0337
28.9461	0.0336
28.9591	0.0334
28.972	0.0333
28.985	0.0331
28.9979	0.033
29.0109	0.0328
29.0238	0.0327
29.0368	0.0325
29.0497	0.0324
29.0626	0.0322
29.0756	0.0321
29.0885	0.032
29.1015	0.0318
29.1144	0.0317
29.1274	0.0316
29.1403	0.0315
29.1533	0.0314
29.1662	0.0312
29.1792	0.0311
29.1921	0.031
29.205	0.0308
29.218	0.0306
29.2309	0.0305
29.2439	0.0302
29.2568	0.03
29.2698	0.0298
29.2827	0.0295
29.2957	0.0293
29.3086	0.029
29.3216	0.0288
29.3345	0.0286
29.3474	0.0283
29.3604	0.0281
29.3733	0.0279
29.3863	0.0277
29.3992	0.0276
29.4122	0.0274
29.4251	0.0272
29.4381	0.027
29.451	0.0268
29.464	0.0266
29.4769	0.0264
29.4898	0.0262
29.5028	0.026
29.5157	0.0258
29.5287	0.0255
29.5416	0.0253
29.5546	0.025
29.5675	0.0247
29.5805	0.0245
29.5934	0.0242
29.6064	0.024
29.6193	0.0237
29.6322	0.0235
29.6452	0.0233
29.6581	0.0231
29.6711	0.0229
29.684	0.0228
29.697	0.0226
29.7099	0.0225
29.7229	0.0224
29.7358	0.0223
29.7488	0.0221
29.7617	0.022
29.7746	0.0219
29.7876	0.0217
29.8005	0.0215
29.8135	0.0213
29.8264	0.0211
29.8394	0.0209
29.8523	0.0207
29.8653	0.0204
29.8782	0.0202
29.8912	0.02
29.9041	0.0198
29.917	0.0196
29.93	0.0194
29.9429	0.0193
29.9559	0.0191
29.9688	0.019
29.9818	0.0188
29.9947	0.0187
30.0077	0.0186
30.0206	0.0184
30.0336	0.0183
30.0465	0.0181
30.0594	0.0179
30.0724	0.0177
30.0853	0.0175
30.0983	0.0173
30.1112	0.0171
30.1242	0.0169
30.1371	0.0166
30.1501	0.0164
30.163	0.0162
30.176	0.016
30.1889	0.0158
30.2018	0.0157
30.2148	0.0155
30.2277	0.0153
30.2407	0.0152
30.2536	0.0151
30.2666	0.0149
30.2795	0.0148
30.2925	0.0147
30.3054	0.0145
30.3184	0.0144
30.3313	0.0142
30.3442	0.0141
30.3572	0.0139
30.3701	0.0138
30.3831	0.0136
30.396	0.0134
30.409	0.0133
30.4219	0.0132
30.4349	0.013
30.4478	0.0129
30.4608	0.0128
30.4737	0.0126
30.4866	0.0125
30.4996	0.0124
30.5125	0.0123
30.5255	0.0122
30.5384	0.0121
30.5514	0.012
30.5643	0.0119
30.5773	0.0118
30.5902	0.0116
30.6032	0.0115
30.6161	0.0114
30.629	0.0112
30.642	0.0111
30.6549	0.0109
30.6679	0.0107
30.6808	0.0106
30.6938	0.0104
30.7067	0.0103
30.7197	0.0101
30.7326	0.01
30.7456	0.0098
30.7585	0.0097
30.7714	0.0096
30.7844	0.0095
30.7973	0.0093
30.8103	0.0092
30.8232	0.0091
30.8362	0.0089
30.8491	0.0088
30.8621	0.0086
30.875	0.0085
30.888	0.0084
30.9009	0.0082
30.9139	0.0081
30.9268	0.0079
30.9397	0.0078
30.9527	0.0077
30.9656	0.0075
30.9786	0.0074
30.9915	0.0073
31.0045	0.0072
31.0174	0.0071
31.0304	0.0069
31.0433	0.0068
31.0563	0.0067
31.0692	0.0066
31.0821	0.0065
31.0951	0.0064
31.108	0.0063
31.121	0.0062
31.1339	0.0061
31.1469	0.006
31.1598	0.0059
31.1728	0.0058
31.1857	0.0057
31.1987	0.0056
31.2116	0.0055
31.2245	0.0055
31.2375	0.0054
31.2504	0.0053
31.2634	0.0053
31.2763	0.0052
31.2893	0.0051
31.3022	0.0051
31.3152	0.005
31.3281	0.0049
31.3411	0.0049
31.354	0.0048
31.3669	0.0047
31.3799	0.0046
31.3928	0.0046
31.4058	0.0045
31.4187	0.0044
31.4317	0.0043
31.4446	0.0043
31.4576	0.0042
31.4705	0.0041
31.4835	0.004
31.4964	0.004
31.5093	0.0039
31.5223	0.0039
31.5352	0.0038
31.5482	0.0037
31.5611	0.0037
31.5741	0.0036
31.587	0.0036
31.6	0.0035
31.6129	0.0034
31.6259	0.0034
31.6388	0.0033
31.6517	0.0033
31.6647	0.0033
31.6776	0.0032
31.6906	0.0032
31.7035	0.0031
31.7165	0.0031
31.7294	0.0031
31.7424	0.003
31.7553	0.003
31.7683	0.003
31.7812	0.0029
31.7941	0.0029
31.8071	0.0029
31.82	0.0028
31.833	0.0028
31.8459	0.0028
31.8589	0.0027
31.8718	0.0027
31.8848	0.0027
31.8977	0.0027
31.9107	0.0026
31.9236	0.0026
31.9365	0.0026
31.9495	0.0026
31.9624	0.0026
31.9754	0.0025
31.9883	0.0025
32.0013	0.0025
32.0142	0.0025
32.0272	0.0025
32.0401	0.0024
32.0531	0.0024
32.066	0.0024
32.0789	0.0024
32.0919	0.0024
32.1048	0.0023
32.1178	0.0023
32.1307	0.0023
32.1437	0.0023
32.1566	0.0023
32.1696	0.0023
32.1825	0.0023
32.1955	0.0023
32.2084	0.0022
32.2213	0.0022
32.2343	0.0022
32.2472	0.0022
32.2602	0.0022
32.2731	0.0022
32.2861	0.0022
32.299	0.0022
32.312	0.0022
32.3249	0.0022
32.3379	0.0021
32.3508	0.0021
32.3637	0.0021
32.3767	0.0021
32.3896	0.0021
32.4026	0.0021
32.4155	0.0021
32.4285	0.0021
32.4414	0.0021
32.4544	0.0021
32.4673	0.0021
32.4803	0.002
32.4932	0.002
32.5061	0.002
32.5191	0.002
32.532	0.002
32.545	0.002
32.5579	0.002
32.5709	0.002
32.5838	0.002
32.5968	0.002
32.6097	0.002
32.6227	0.002
32.6356	0.002
32.6485	0.002
32.6615	0.002
32.6744	0.002
32.6874	0.002
32.7003	0.0019
32.7133	0.0019
32.7262	0.0019
32.7392	0.0019
32.7521	0.0019
32.7651	0.0019
32.778	0.0019
32.7909	0.0019
32.8039	0.0019
32.8168	0.0019
32.8298	0.0019
32.8427	0.0019
32.8557	0.0019
32.8686	0.0019
32.8816	0.0019
32.8945	0.0019
32.9075	0.0019
32.9204	0.0019
32.9333	0.0019
32.9463	0.0019
32.9592	0.0018
32.9722	0.0018
32.9851	0.0018
32.9981	0.0018
33.011	0.0018
33.024	0.0018
33.0369	0.0018
33.0499	0.0018
33.0628	0.0018
33.0757	0.0018
33.0887	0.0018
33.1016	0.0018
33.1146	0.0018
33.1275	0.0018
33.1405	0.0018
33.1534	0.0018
33.1664	0.0018
33.1793	0.0018
33.1923	0.0018
33.2052	0.0018
33.2181	0.0018
33.2311	0.0018
33.244	0.0018
33.257	0.0018
33.2699	0.0018
33.2829	0.0017
33.2958	0.0017
33.3088	0.0017
33.3217	0.0017
33.3347	0.0017
33.3476	0.0017
33.3605	0.0017
33.3735	0.0017
33.3864	0.0017
33.3994	0.0017
33.4123	0.0017
33.4253	0.0017
33.4382	0.0017
33.4512	0.0017
33.4641	0.0017
33.4771	0.0017
33.49	0.0017
33.5029	0.0017
33.5159	0.0017
33.5288	0.0017
33.5418	0.0017
33.5547	0.0017
33.5677	0.0017
33.5806	0.0017
33.5936	0.0017
33.6065	0.0017
33.6195	0.0017
33.6324	0.0017
33.6454	0.0017
33.6583	0.0017
33.6712	0.0016
33.6842	0.0016
33.6971	0.0016
33.7101	0.0016
33.723	0.0016
33.736	0.0016
33.7489	0.0016
33.7619	0.0016
33.7748	0.0016
33.7878	0.0016
33.8007	0.0016
33.8136	0.0016
33.8266	0.0016
33.8395	0.0016
33.8525	0.0016
33.8654	0.0016
33.8784	0.0016
33.8913	0.0016
33.9043	0.0016
33.9172	0.0016
33.9302	0.0016
33.9431	0.0016
33.956	0.0016
33.969	0.0016
33.9819	0.0016
33.9949	0.0016
34.0078	0.0016
34.0208	0.0016
34.0337	0.0016
34.0467	0.0016
34.0596	0.0016
34.0726	0.0016
34.0855	0.0016
34.0984	0.0016
34.1114	0.0016
34.1243	0.0015
34.1373	0.0015
34.1502	0.0015
34.1632	0.0015
34.1761	0.0015
34.1891	0.0015
34.202	0.0015
34.215	0.0015
34.2279	0.0015
34.2408	0.0015
34.2538	0.0015
34.2667	0.0015
34.2797	0.0015
34.2926	0.0015
34.3056	0.0015
34.3185	0.0015
34.3315	0.0015
34.3444	0.0015
34.3574	0.0015
34.3703	0.0015
34.3832	0.0015
34.3962	0.0015
34.4091	0.0015
34.4221	0.0015
34.435	0.0015
34.448	0.0015
34.4609	0.0015
34.4739	0.0015
34.4868	0.0015
34.4998	0.0015
34.5127	0.0015
34.5256	0.0015
34.5386	0.0015
34.5515	0.0015
34.5645	0.0015
34.5774	0.0015
34.5904	0.0015
34.6033	0.0015
34.6163	0.0015
34.6292	0.0014
34.6422	0.0014
34.6551	0.0014
34.668	0.0014
34.681	0.0014
34.6939	0.0014
34.7069	0.0014
34.7198	0.0014
34.7328	0.0014
34.7457	0.0014
34.7587	0.0014
34.7716	0.0014
34.7846	0.0014
34.7975	0.0014
34.8104	0.0014
34.8234	0.0014
34.8363	0.0014
34.8493	0.0014
34.8622	0.0014
34.8752	0.0014
34.8881	0.0014
34.9011	0.0014
34.914	0.0014
34.927	0.0014
34.9399	0.0014
34.9528	0.0014
34.9658	0.0014
34.9787	0.0014
34.9917	0.0014
35.0046	0.0014
35.0176	0.0014
35.0305	0.0014
35.0435	0.0014
35.0564	0.0014
35.0694	0.0014
35.0823	0.0014
35.0952	0.0014
35.1082	0.0014
35.1211	0.0014
35.1341	0.0014
35.147	0.0014
35.16	0.0014
35.1729	0.0014
35.1859	0.0014
35.1988	0.0014
35.2118	0.0014
35.2247	0.0014
35.2376	0.0013
35.2506	0.0013
35.2635	0.0013
35.2765	0.0013
35.2894	0.0013
35.3024	0.0013
35.3153	0.0013
35.3283	0.0013
35.3412	0.0013
35.3542	0.0013
35.3671	0.0013
35.38	0.0013
35.393	0.0013
35.4059	0.0013
35.4189	0.0013
35.4318	0.0013
35.4448	0.0013
35.4577	0.0013
35.4707	0.0013
35.4836	0.0013
35.4966	0.0013
35.5095	0.0013
35.5224	0.0013
35.5354	0.0013
35.5483	0.0013
35.5613	0.0013
35.5742	0.0013
35.5872	0.0013
35.6001	0.0013
35.6131	0.0013
35.626	0.0013
35.639	0.0013
35.6519	0.0013
35.6648	0.0013
35.6778	0.0013
35.6907	0.0013
35.7037	0.0013
35.7166	0.0013
35.7296	0.0013
35.7425	0.0013
35.7555	0.0013
35.7684	0.0013
35.7814	0.0013
35.7943	0.0013
35.8072	0.0013
35.8202	0.0013
35.8331	0.0013
35.8461	0.0013
35.859	0.0013
35.872	0.0013
35.8849	0.0013
35.8979	0.0013
35.9108	0.0012
35.9238	0.0012
35.9367	0.0012
35.9496	0.0012
35.9626	0.0012
35.9755	0.0012
35.9885	0.0012
36.0014	0.0012
36.0144	0.0012
36.0273	0.0012
36.0403	0.0012
36.0532	0.0012
36.0662	0.0012
36.0791	0.0012
36.092	0.0012
36.105	0.0012
36.1179	0.0012
36.1309	0.0012
36.1438	0.0012
36.1568	0.0012
36.1697	0.0012
36.1827	0.0012
36.1956	0.0012
36.2086	0.0012
36.2215	0.0012
36.2345	0.0012
36.2474	0.0012
36.2603	0.0012
36.2733	0.0012
36.2862	0.0012
36.2992	0.0012
36.3121	0.0012
36.3251	0.0012
36.338	0.0012
36.351	0.0012
36.3639	0.0012
36.3769	0.0012
36.3898	0.0012
36.4027	0.0012
36.4157	0.0012
36.4286	0.0012
36.4416	0.0012
36.4545	0.0012
36.4675	0.0012
36.4804	0.0012
36.4934	0.0012
36.5063	0.0012
36.5193	0.0012
36.5322	0.0012
36.5451	0.0012
36.5581	0.0012
36.571	0.0012
36.584	0.0012
36.5969	0.0012
36.6099	0.0012
36.6228	0.0012
36.6358	0.0012
36.6487	0.0012
36.6617	0.0012
36.6746	0.0012
36.6875	0.0012
36.7005	0.0011
36.7134	0.0011
36.7264	0.0011
36.7393	0.0011
36.7523	0.0011
36.7652	0.0011
36.7782	0.0011
36.7911	0.0011
36.8041	0.0011
36.817	0.0011
36.8299	0.0011
36.8429	0.0011
36.8558	0.0011
36.8688	0.0011
36.8817	0.0011
36.8947	0.0011
36.9076	0.0011
36.9206	0.0011
36.9335	0.0011
36.9465	0.0011
36.9594	0.0011
36.9723	0.0011
36.9853	0.0011
36.9982	0.0011
37.0112	0.0011
37.0241	0.0011
37.0371	0.0011
37.05	0.0011
37.063	0.0011
37.0759	0.0011
37.0889	0.0011
37.1018	0.0011
37.1147	0.0011
37.1277	0.0011
37.1406	0.0011
37.1536	0.0011
37.1665	0.0011
37.1795	0.0011
37.1924	0.0011
37.2054	0.0011
37.2183	0.0011
37.2313	0.0011
37.2442	0.0011
37.2571	0.0011
37.2701	0.0011
37.283	0.0011
37.296	0.0011
37.3089	0.0011
37.3219	0.0011
37.3348	0.0011
37.3478	0.0011
37.3607	0.0011
37.3737	0.0011
37.3866	0.0011
37.3995	0.0011
37.4125	0.0011
37.4254	0.0011
37.4384	0.0011
37.4513	0.0011
37.4643	0.0011
37.4772	0.0011
37.4902	0.0011
37.5031	0.0011
37.5161	0.0011
37.529	0.0011
37.5419	0.0011
37.5549	0.0011
37.5678	0.0011
37.5808	0.0011
37.5937	0.0011
37.6067	0.0011
37.6196	0.001
37.6326	0.001
37.6455	0.001
37.6585	0.001
37.6714	0.001
37.6843	0.001
37.6973	0.001
37.7102	0.001
37.7232	0.001
37.7361	0.001
37.7491	0.001
37.762	0.001
37.775	0.001
37.7879	0.001
37.8009	0.001
37.8138	0.001
37.8267	0.001
37.8397	0.001
37.8526	0.001
37.8656	0.001
37.8785	0.001
37.8915	0.001
37.9044	0.001
37.9174	0.001
37.9303	0.001
37.9433	0.001
37.9562	0.001
37.9691	0.001
37.9821	0.001
37.995	0.001
38.008	0.001
38.0209	0.001
38.0339	0.001
38.0468	0.001
38.0598	0.001
38.0727	0.001
38.0857	0.001
38.0986	0.001
38.1115	0.001
38.1245	0.001
38.1374	0.001
38.1504	0.001
38.1633	0.001
38.1763	0.001
38.1892	0.001
38.2022	0.001
38.2151	0.001
38.2281	0.001
38.241	0.001
38.2539	0.001
38.2669	0.001
38.2798	0.001
38.2928	0.001
38.3057	0.001
38.3187	0.001
38.3316	0.001
38.3446	0.001
38.3575	0.001
38.3705	0.001
38.3834	0.001
38.3963	0.001
38.4093	0.001
38.4222	0.001
38.4352	0.001
38.4481	0.001
38.4611	0.001
38.474	0.001
38.487	0.001
38.4999	0.001
38.5129	0.001
38.5258	0.001
38.5387	0.001
38.5517	0.001
38.5646	0.001
38.5776	0.001
38.5905	0.001
38.6035	0.001
38.6164	0.001
38.6294	0.001
38.6423	0.001
38.6553	0.001
38.6682	0.001
38.6811	9E-4
38.6941	9E-4
38.707	9E-4
38.72	9E-4
38.7329	9E-4
38.7459	9E-4
38.7588	9E-4
38.7718	9E-4
38.7847	9E-4
38.7977	9E-4
38.8106	9E-4
38.8235	9E-4
38.8365	9E-4