# Energy(eV) epsilon_R
0	8.0126
0.0129	8.0128
0.0259	8.0134
0.0388	8.0143
0.0518	8.0156
0.0647	8.0172
0.0777	8.0192
0.0906	8.0216
0.1036	8.0244
0.1165	8.0275
0.1295	8.0311
0.1424	8.035
0.1553	8.0393
0.1683	8.0441
0.1812	8.0492
0.1942	8.0548
0.2071	8.0608
0.2201	8.0672
0.233	8.0741
0.246	8.0814
0.2589	8.0892
0.2719	8.0976
0.2848	8.1064
0.2977	8.1157
0.3107	8.1256
0.3236	8.136
0.3366	8.147
0.3495	8.1586
0.3625	8.1708
0.3754	8.1837
0.3884	8.1972
0.4013	8.2115
0.4143	8.2265
0.4272	8.2423
0.4401	8.2589
0.4531	8.2764
0.466	8.2948
0.479	8.3141
0.4919	8.3344
0.5049	8.3559
0.5178	8.3784
0.5308	8.4022
0.5437	8.4273
0.5567	8.4537
0.5696	8.4815
0.5825	8.5109
0.5955	8.5419
0.6084	8.5746
0.6214	8.6091
0.6343	8.6455
0.6473	8.6839
0.6602	8.7243
0.6732	8.7666
0.6861	8.811
0.6991	8.8571
0.712	8.9047
0.7249	8.9533
0.7379	9.0022
0.7508	9.0499
0.7638	9.0949
0.7767	9.1344
0.7897	9.165
0.8026	9.1823
0.8156	9.1807
0.8285	9.154
0.8415	9.0958
0.8544	9.0006
0.8673	8.865
0.8803	8.6887
0.8932	8.4762
0.9062	8.2363
0.9191	7.9818
0.9321	7.7278
0.945	7.4893
0.958	7.2791
0.9709	7.106
0.9839	6.9742
0.9968	6.8837
1.0097	6.8309
1.0227	6.8103
1.0356	6.8155
1.0486	6.8403
1.0615	6.8793
1.0745	6.9279
1.0874	6.9827
1.1004	7.0412
1.1133	7.1017
1.1263	7.1628
1.1392	7.2239
1.1521	7.2845
1.1651	7.3443
1.178	7.4031
1.191	7.461
1.2039	7.518
1.2169	7.5743
1.2298	7.6298
1.2428	7.6848
1.2557	7.7394
1.2687	7.7938
1.2816	7.8481
1.2945	7.9025
1.3075	7.9571
1.3204	8.0121
1.3334	8.0677
1.3463	8.124
1.3593	8.1813
1.3722	8.2396
1.3852	8.2992
1.3981	8.3601
1.4111	8.4227
1.424	8.4869
1.437	8.553
1.4499	8.6211
1.4628	8.6912
1.4758	8.7632
1.4887	8.8371
1.5017	8.9124
1.5146	8.9887
1.5276	9.0649
1.5405	9.1397
1.5535	9.211
1.5664	9.2757
1.5794	9.3301
1.5923	9.3691
1.6052	9.3867
1.6182	9.3763
1.6311	9.331
1.6441	9.2448
1.657	9.1137
1.67	8.9365
1.6829	8.7159
1.6959	8.4584
1.7088	8.1747
1.7218	7.878
1.7347	7.583
1.7476	7.3045
1.7606	7.055
1.7735	6.8444
1.7865	6.6783
1.7994	6.5585
1.8124	6.4833
1.8253	6.4482
1.8383	6.447
1.8512	6.473
1.8642	6.5195
1.8771	6.5808
1.89	6.6522
1.903	6.7298
1.9159	6.8109
1.9289	6.8935
1.9418	6.9761
1.9548	7.058
1.9677	7.1384
1.9807	7.217
1.9936	7.2937
2.0066	7.3685
2.0195	7.4413
2.0324	7.5123
2.0454	7.5818
2.0583	7.6499
2.0713	7.7169
2.0842	7.783
2.0972	7.8483
2.1101	7.9131
2.1231	7.9774
2.136	8.0413
2.149	8.1048
2.1619	8.1681
2.1748	8.2312
2.1878	8.2943
2.2007	8.3575
2.2137	8.4211
2.2266	8.4854
2.2396	8.5504
2.2525	8.6165
2.2655	8.6837
2.2784	8.7522
2.2914	8.8219
2.3043	8.8928
2.3172	8.9647
2.3302	9.0374
2.3431	9.1105
2.3561	9.1834
2.369	9.2554
2.382	9.3257
2.3949	9.3931
2.4079	9.4567
2.4208	9.5153
2.4338	9.5683
2.4467	9.6151
2.4596	9.6559
2.4726	9.6915
2.4855	9.7233
2.4985	9.7531
2.5114	9.783
2.5244	9.8152
2.5373	9.8514
2.5503	9.8929
2.5632	9.94
2.5762	9.9927
2.5891	10.0495
2.602	10.1086
2.615	10.1671
2.6279	10.2216
2.6409	10.2684
2.6538	10.3039
2.6668	10.3254
2.6797	10.3309
2.6927	10.3202
2.7056	10.2945
2.7186	10.2567
2.7315	10.211
2.7444	10.1626
2.7574	10.1171
2.7703	10.08
2.7833	10.0558
2.7962	10.0477
2.8092	10.0572
2.8221	10.0835
2.8351	10.1245
2.848	10.1762
2.861	10.2342
2.8739	10.2936
2.8868	10.3506
2.8998	10.4024
2.9127	10.4479
2.9257	10.488
2.9386	10.525
2.9516	10.5621
2.9645	10.6031
2.9775	10.651
2.9904	10.7078
3.0034	10.7736
3.0163	10.8467
3.0292	10.9237
3.0422	11.0003
3.0551	11.0717
3.0681	11.1335
3.081	11.1825
3.094	11.2162
3.1069	11.2337
3.1199	11.2351
3.1328	11.2212
3.1458	11.1935
3.1587	11.1541
3.1716	11.1057
3.1846	11.0516
3.1975	10.9955
3.2105	10.9419
3.2234	10.8951
3.2364	10.8596
3.2493	10.8391
3.2623	10.8365
3.2752	10.8536
3.2882	10.8908
3.3011	10.9469
3.314	11.0194
3.327	11.1043
3.3399	11.1968
3.3529	11.2912
3.3658	11.3811
3.3788	11.4602
3.3917	11.5224
3.4047	11.562
3.4176	11.5745
3.4306	11.5565
3.4435	11.5062
3.4564	11.4238
3.4694	11.3111
3.4823	11.1716
3.4953	11.0105
3.5082	10.8337
3.5212	10.6483
3.5341	10.4614
3.5471	10.2803
3.56	10.1118
3.573	9.9615
3.5859	9.834
3.5988	9.7314
3.6118	9.6544
3.6247	9.6014
3.6377	9.5692
3.6506	9.5533
3.6636	9.5485
3.6765	9.549
3.6895	9.5495
3.7024	9.545
3.7154	9.5312
3.7283	9.5046
3.7412	9.4628
3.7542	9.4043
3.7671	9.3287
3.7801	9.237
3.793	9.1316
3.806	9.0164
3.8189	8.8967
3.8319	8.7781
3.8448	8.6664
3.8578	8.5661
3.8707	8.4802
3.8836	8.4091
3.8966	8.3514
3.9095	8.304
3.9225	8.263
3.9354	8.2247
3.9484	8.186
3.9613	8.1444
3.9743	8.0987
3.9872	8.0475
4.0002	7.9897
4.0131	7.9235
4.0261	7.8471
4.039	7.7584
4.0519	7.6554
4.0649	7.537
4.0778	7.4024
4.0908	7.2524
4.1037	7.0883
4.1167	6.9125
4.1296	6.7282
4.1426	6.539
4.1555	6.3484
4.1685	6.1597
4.1814	5.9757
4.1943	5.7985
4.2073	5.6294
4.2202	5.4694
4.2332	5.3191
4.2461	5.1784
4.2591	5.0472
4.272	4.9245
4.285	4.8092
4.2979	4.7003
4.3109	4.5969
4.3238	4.4992
4.3367	4.4085
4.3497	4.3269
4.3626	4.2571
4.3756	4.2016
4.3885	4.1623
4.4015	4.1398
4.4144	4.1334
4.4274	4.1414
4.4403	4.1611
4.4533	4.1897
4.4662	4.2245
4.4791	4.2632
4.4921	4.3041
4.505	4.3457
4.518	4.3872
4.5309	4.4273
4.5439	4.4646
4.5568	4.4973
4.5698	4.5231
4.5827	4.5399
4.5957	4.5457
4.6086	4.5392
4.6215	4.52
4.6345	4.4882
4.6474	4.4442
4.6604	4.3886
4.6733	4.3216
4.6863	4.2434
4.6992	4.1541
4.7122	4.0543
4.7251	3.9449
4.7381	3.8277
4.751	3.7045
4.7639	3.5778
4.7769	3.4498
4.7898	3.3226
4.8028	3.1979
4.8157	3.0771
4.8287	2.9615
4.8416	2.8525
4.8546	2.7514
4.8675	2.66
4.8805	2.5801
4.8934	2.5132
4.9063	2.4603
4.9193	2.4219
4.9322	2.3973
4.9452	2.3853
4.9581	2.3839
4.9711	2.3907
4.984	2.4027
4.997	2.4167
5.0099	2.4297
5.0229	2.4386
5.0358	2.4414
5.0487	2.4367
5.0617	2.4245
5.0746	2.4055
5.0876	2.3817
5.1005	2.3554
5.1135	2.3292
5.1264	2.3059
5.1394	2.2881
5.1523	2.2779
5.1653	2.2771
5.1782	2.2868
5.1911	2.3074
5.2041	2.3385
5.217	2.3787
5.23	2.4258
5.2429	2.4768
5.2559	2.5282
5.2688	2.5767
5.2818	2.6196
5.2947	2.655
5.3077	2.6821
5.3206	2.7009
5.3335	2.7118
5.3465	2.7154
5.3594	2.712
5.3724	2.7021
5.3853	2.6862
5.3983	2.6652
5.4112	2.6405
5.4242	2.6141
5.4371	2.5885
5.4501	2.5662
5.463	2.5496
5.4759	2.541
5.4889	2.5422
5.5018	2.5549
5.5148	2.5805
5.5277	2.6203
5.5407	2.6752
5.5536	2.7458
5.5666	2.8322
5.5795	2.9336
5.5925	3.0488
5.6054	3.1756
5.6183	3.3112
5.6313	3.4524
5.6442	3.5956
5.6572	3.737
5.6701	3.873
5.6831	4.0001
5.696	4.1152
5.709	4.2155
5.7219	4.2989
5.7349	4.3639
5.7478	4.4099
5.7607	4.4368
5.7737	4.4458
5.7866	4.4387
5.7996	4.4177
5.8125	4.3857
5.8255	4.3451
5.8384	4.2982
5.8514	4.2464
5.8643	4.1906
5.8773	4.1312
5.8902	4.068
5.9031	4.0015
5.9161	3.9319
5.929	3.8605
5.942	3.7892
5.9549	3.72
5.9679	3.6557
5.9808	3.5986
5.9938	3.5507
6.0067	3.5129
6.0197	3.4856
6.0326	3.468
6.0455	3.4588
6.0585	3.4559
6.0714	3.4568
6.0844	3.4588
6.0973	3.4592
6.1103	3.4552
6.1232	3.4444
6.1362	3.4248
6.1491	3.3953
6.1621	3.3558
6.175	3.3067
6.1879	3.2495
6.2009	3.1863
6.2138	3.1192
6.2268	3.0505
6.2397	2.9827
6.2527	2.9175
6.2656	2.8567
6.2786	2.8015
6.2915	2.7532
6.3045	2.7122
6.3174	2.6788
6.3303	2.6526
6.3433	2.6324
6.3562	2.6161
6.3692	2.6002
6.3821	2.5803
6.3951	2.5513
6.408	2.5076
6.421	2.4444
6.4339	2.3576
6.4469	2.2448
6.4598	2.1052
6.4727	1.9394
6.4857	1.7494
6.4986	1.5381
6.5116	1.3091
6.5245	1.067
6.5375	0.8165
6.5504	0.5631
6.5634	0.3121
6.5763	0.0683
6.5893	-0.1645
6.6022	-0.3838
6.6151	-0.5888
6.6281	-0.7796
6.641	-0.9578
6.654	-1.125
6.6669	-1.2832
6.6799	-1.4335
6.6928	-1.5767
6.7058	-1.713
6.7187	-1.8419
6.7317	-1.9628
6.7446	-2.0746
6.7576	-2.1761
6.7705	-2.2657
6.7834	-2.3419
6.7964	-2.4031
6.8093	-2.4478
6.8223	-2.4753
6.8352	-2.486
6.8482	-2.4813
6.8611	-2.4639
6.8741	-2.4373
6.887	-2.4057
6.9	-2.3734
6.9129	-2.3445
6.9258	-2.323
6.9388	-2.3122
6.9517	-2.3152
6.9647	-2.334
6.9776	-2.3697
6.9906	-2.4218
7.0035	-2.4877
7.0165	-2.5634
7.0294	-2.6433
7.0424	-2.7212
7.0553	-2.7911
7.0682	-2.8485
7.0812	-2.8907
7.0941	-2.9172
7.1071	-2.93
7.12	-2.9322
7.133	-2.928
7.1459	-2.922
7.1589	-2.9179
7.1718	-2.919
7.1848	-2.9275
7.1977	-2.9442
7.2106	-2.9693
7.2236	-3.0019
7.2365	-3.0402
7.2495	-3.0823
7.2624	-3.1256
7.2754	-3.1679
7.2883	-3.2072
7.3013	-3.2421
7.3142	-3.272
7.3272	-3.2967
7.3401	-3.3167
7.353	-3.3327
7.366	-3.3451
7.3789	-3.3537
7.3919	-3.3579
7.4048	-3.3566
7.4178	-3.3484
7.4307	-3.3325
7.4437	-3.3086
7.4566	-3.2772
7.4696	-3.2401
7.4825	-3.1993
7.4954	-3.1576
7.5084	-3.1175
7.5213	-3.0812
7.5343	-3.0505
7.5472	-3.0265
7.5602	-3.0099
7.5731	-3.0007
7.5861	-2.9988
7.599	-3.0039
7.612	-3.0154
7.6249	-3.0329
7.6378	-3.0557
7.6508	-3.083
7.6637	-3.1139
7.6767	-3.1468
7.6896	-3.18
7.7026	-3.2113
7.7155	-3.2385
7.7285	-3.2594
7.7414	-3.2721
7.7544	-3.2754
7.7673	-3.2688
7.7802	-3.2525
7.7932	-3.2272
7.8061	-3.1941
7.8191	-3.1547
7.832	-3.1106
7.845	-3.063
7.8579	-3.0132
7.8709	-2.9622
7.8838	-2.9107
7.8968	-2.8593
7.9097	-2.8084
7.9226	-2.7585
7.9356	-2.7102
7.9485	-2.6643
7.9615	-2.6217
7.9744	-2.5834
7.9874	-2.5502
8.0003	-2.5229
8.0133	-2.5016
8.0262	-2.486
8.0392	-2.4752
8.0521	-2.468
8.065	-2.4626
8.078	-2.4573
8.0909	-2.4503
8.1039	-2.4403
8.1168	-2.426
8.1298	-2.4069
8.1427	-2.3828
8.1557	-2.3539
8.1686	-2.3209
8.1816	-2.2847
8.1945	-2.2464
8.2074	-2.2073
8.2204	-2.1687
8.2333	-2.1317
8.2463	-2.0974
8.2592	-2.0666
8.2722	-2.0396
8.2851	-2.0167
8.2981	-1.9973
8.311	-1.9809
8.324	-1.9662
8.3369	-1.9521
8.3498	-1.9372
8.3628	-1.9204
8.3757	-1.9009
8.3887	-1.878
8.4016	-1.8518
8.4146	-1.8226
8.4275	-1.7911
8.4405	-1.7581
8.4534	-1.7245
8.4664	-1.6914
8.4793	-1.6594
8.4922	-1.6293
8.5052	-1.6015
8.5181	-1.5761
8.5311	-1.5533
8.544	-1.5328
8.557	-1.5146
8.5699	-1.4986
8.5829	-1.4848
8.5958	-1.4738
8.6088	-1.4663
8.6217	-1.4635
8.6346	-1.4667
8.6476	-1.477
8.6605	-1.4953
8.6735	-1.5217
8.6864	-1.5553
8.6994	-1.5944
8.7123	-1.6361
8.7253	-1.6774
8.7382	-1.715
8.7512	-1.7461
8.7641	-1.7685
8.777	-1.7809
8.79	-1.783
8.8029	-1.775
8.8159	-1.7578
8.8288	-1.7325
8.8418	-1.7005
8.8547	-1.6633
8.8677	-1.6222
8.8806	-1.5788
8.8936	-1.5347
8.9065	-1.4914
8.9194	-1.4501
8.9324	-1.4121
8.9453	-1.378
8.9583	-1.3484
8.9712	-1.3235
8.9842	-1.303
8.9971	-1.2867
9.0101	-1.2738
9.023	-1.2638
9.036	-1.2557
9.0489	-1.2488
9.0618	-1.242
9.0748	-1.2348
9.0877	-1.2268
9.1007	-1.2176
9.1136	-1.2076
9.1266	-1.1972
9.1395	-1.187
9.1525	-1.1777
9.1654	-1.1699
9.1784	-1.1639
9.1913	-1.1595
9.2042	-1.1565
9.2172	-1.1542
9.2301	-1.1517
9.2431	-1.1485
9.256	-1.1441
9.269	-1.1384
9.2819	-1.132
9.2949	-1.1254
9.3078	-1.1196
9.3208	-1.1154
9.3337	-1.1137
9.3466	-1.1151
9.3596	-1.1197
9.3725	-1.1276
9.3855	-1.1387
9.3984	-1.1526
9.4114	-1.1691
9.4243	-1.1877
9.4373	-1.2082
9.4502	-1.2303
9.4632	-1.2535
9.4761	-1.2773
9.4891	-1.3009
9.502	-1.3235
9.5149	-1.344
9.5279	-1.3611
9.5408	-1.374
9.5538	-1.3817
9.5667	-1.3839
9.5797	-1.3805
9.5926	-1.3721
9.6056	-1.3594
9.6185	-1.3434
9.6315	-1.3253
9.6444	-1.306
9.6573	-1.2862
9.6703	-1.2662
9.6832	-1.2462
9.6962	-1.2262
9.7091	-1.2058
9.7221	-1.1854
9.735	-1.1649
9.748	-1.145
9.7609	-1.1261
9.7739	-1.1088
9.7868	-1.0937
9.7997	-1.0811
9.8127	-1.0713
9.8256	-1.0643
9.8386	-1.0604
9.8515	-1.0597
9.8645	-1.0624
9.8774	-1.0683
9.8904	-1.0772
9.9033	-1.0885
9.9163	-1.1016
9.9292	-1.1155
9.9421	-1.1293
9.9551	-1.1423
9.968	-1.1541
9.981	-1.1648
9.9939	-1.1748
10.0069	-1.185
10.0198	-1.1962
10.0328	-1.2095
10.0457	-1.2259
10.0587	-1.2459
10.0716	-1.2701
10.0845	-1.2987
10.0975	-1.3316
10.1104	-1.3687
10.1234	-1.4094
10.1363	-1.453
10.1493	-1.4986
10.1622	-1.5452
10.1752	-1.5915
10.1881	-1.6364
10.2011	-1.6789
10.214	-1.718
10.2269	-1.7532
10.2399	-1.7842
10.2528	-1.8112
10.2658	-1.8346
10.2787	-1.8548
10.2917	-1.8724
10.3046	-1.8879
10.3176	-1.9016
10.3305	-1.9134
10.3435	-1.9233
10.3564	-1.931
10.3693	-1.9361
10.3823	-1.9383
10.3952	-1.9374
10.4082	-1.9335
10.4211	-1.9268
10.4341	-1.9177
10.447	-1.9066
10.46	-1.8941
10.4729	-1.8806
10.4859	-1.8662
10.4988	-1.8513
10.5117	-1.8357
10.5247	-1.8193
10.5376	-1.802
10.5506	-1.7835
10.5635	-1.7638
10.5765	-1.7429
10.5894	-1.7206
10.6024	-1.6973
10.6153	-1.6732
10.6283	-1.6487
10.6412	-1.6244
10.6541	-1.6006
10.6671	-1.5781
10.68	-1.5572
10.693	-1.5386
10.7059	-1.5226
10.7189	-1.5095
10.7318	-1.4997
10.7448	-1.4931
10.7577	-1.4896
10.7707	-1.4889
10.7836	-1.4906
10.7965	-1.4943
10.8095	-1.4997
10.8224	-1.5064
10.8354	-1.5143
10.8483	-1.5234
10.8613	-1.5338
10.8742	-1.5457
10.8872	-1.5592
10.9001	-1.5744
10.9131	-1.5911
10.926	-1.609
10.9389	-1.6275
10.9519	-1.6461
10.9648	-1.6638
10.9778	-1.68
10.9907	-1.6939
11.0037	-1.705
11.0166	-1.713
11.0296	-1.7176
11.0425	-1.7191
11.0555	-1.7175
11.0684	-1.7133
11.0813	-1.7069
11.0943	-1.6988
11.1072	-1.6895
11.1202	-1.6793
11.1331	-1.6685
11.1461	-1.6573
11.159	-1.6457
11.172	-1.6338
11.1849	-1.6217
11.1979	-1.6094
11.2108	-1.5972
11.2237	-1.5851
11.2367	-1.5734
11.2496	-1.562
11.2626	-1.5508
11.2755	-1.5397
11.2885	-1.5283
11.3014	-1.5163
11.3144	-1.5036
11.3273	-1.4903
11.3403	-1.4764
11.3532	-1.4623
11.3661	-1.4483
11.3791	-1.435
11.392	-1.4227
11.405	-1.4118
11.4179	-1.4024
11.4309	-1.3947
11.4438	-1.3886
11.4568	-1.384
11.4697	-1.3806
11.4827	-1.3783
11.4956	-1.377
11.5085	-1.3765
11.5215	-1.3768
11.5344	-1.3776
11.5474	-1.3789
11.5603	-1.3806
11.5733	-1.3824
11.5862	-1.3841
11.5992	-1.3856
11.6121	-1.3865
11.6251	-1.3867
11.638	-1.3861
11.6509	-1.3845
11.6639	-1.3821
11.6768	-1.3787
11.6898	-1.3746
11.7027	-1.3698
11.7157	-1.3644
11.7286	-1.3584
11.7416	-1.3519
11.7545	-1.3449
11.7675	-1.3372
11.7804	-1.3291
11.7933	-1.3202
11.8063	-1.3107
11.8192	-1.3004
11.8322	-1.2894
11.8451	-1.2777
11.8581	-1.2655
11.871	-1.253
11.884	-1.2404
11.8969	-1.2278
11.9099	-1.2153
11.9228	-1.2032
11.9357	-1.1915
11.9487	-1.1802
11.9616	-1.1697
11.9746	-1.16
11.9875	-1.1512
12.0005	-1.1436
12.0134	-1.1371
12.0264	-1.1317
12.0393	-1.127
12.0523	-1.1227
12.0652	-1.1185
12.0782	-1.1141
12.0911	-1.1092
12.104	-1.1036
12.117	-1.0972
12.1299	-1.0901
12.1429	-1.0824
12.1558	-1.0742
12.1688	-1.0658
12.1817	-1.0573
12.1947	-1.0491
12.2076	-1.0414
12.2206	-1.0344
12.2335	-1.0283
12.2464	-1.0232
12.2594	-1.0191
12.2723	-1.0162
12.2853	-1.0143
12.2982	-1.0134
12.3112	-1.0133
12.3241	-1.0137
12.3371	-1.0145
12.35	-1.0155
12.363	-1.0163
12.3759	-1.0166
12.3888	-1.0164
12.4018	-1.0154
12.4147	-1.0133
12.4277	-1.0102
12.4406	-1.0058
12.4536	-1.0003
12.4665	-0.9938
12.4795	-0.9863
12.4924	-0.9783
12.5054	-0.97
12.5183	-0.962
12.5312	-0.9545
12.5442	-0.948
12.5571	-0.9428
12.5701	-0.9392
12.583	-0.9371
12.596	-0.9366
12.6089	-0.9375
12.6219	-0.9395
12.6348	-0.9423
12.6478	-0.9457
12.6607	-0.9493
12.6736	-0.9531
12.6866	-0.957
12.6995	-0.9611
12.7125	-0.9656
12.7254	-0.9708
12.7384	-0.9768
12.7513	-0.9836
12.7643	-0.9911
12.7772	-0.9991
12.7902	-1.0072
12.8031	-1.0151
12.816	-1.0221
12.829	-1.028
12.8419	-1.0323
12.8549	-1.0348
12.8678	-1.0354
12.8808	-1.034
12.8937	-1.0306
12.9067	-1.0252
12.9196	-1.0181
12.9326	-1.0093
12.9455	-0.9991
12.9584	-0.9878
12.9714	-0.9754
12.9843	-0.9623
12.9973	-0.9486
13.0102	-0.9344
13.0232	-0.9201
13.0361	-0.9056
13.0491	-0.8911
13.062	-0.8769
13.075	-0.8629
13.0879	-0.8494
13.1008	-0.8365
13.1138	-0.8243
13.1267	-0.8131
13.1397	-0.8031
13.1526	-0.7945
13.1656	-0.7874
13.1785	-0.7821
13.1915	-0.7785
13.2044	-0.7767
13.2174	-0.7766
13.2303	-0.7779
13.2432	-0.7803
13.2562	-0.7835
13.2691	-0.7872
13.2821	-0.7911
13.295	-0.7948
13.308	-0.7983
13.3209	-0.8015
13.3339	-0.8044
13.3468	-0.8071
13.3598	-0.8099
13.3727	-0.8127
13.3856	-0.8157
13.3986	-0.819
13.4115	-0.8226
13.4245	-0.8264
13.4374	-0.8302
13.4504	-0.8341
13.4633	-0.8378
13.4763	-0.8411
13.4892	-0.844
13.5022	-0.8463
13.5151	-0.848
13.528	-0.8491
13.541	-0.8495
13.5539	-0.8492
13.5669	-0.8484
13.5798	-0.8469
13.5928	-0.8449
13.6057	-0.8423
13.6187	-0.8391
13.6316	-0.8351
13.6446	-0.8305
13.6575	-0.8251
13.6704	-0.819
13.6834	-0.8121
13.6963	-0.8045
13.7093	-0.7962
13.7222	-0.7874
13.7352	-0.7783
13.7481	-0.7688
13.7611	-0.7591
13.774	-0.7494
13.787	-0.7397
13.7999	-0.7303
13.8128	-0.7212
13.8258	-0.7126
13.8387	-0.7047
13.8517	-0.6976
13.8646	-0.6914
13.8776	-0.6864
13.8905	-0.6823
13.9035	-0.6794
13.9164	-0.6773
13.9294	-0.6761
13.9423	-0.6756
13.9552	-0.6756
13.9682	-0.676
13.9811	-0.6765
13.9941	-0.677
14.007	-0.6773
14.02	-0.6773
14.0329	-0.6769
14.0459	-0.6758
14.0588	-0.6742
14.0718	-0.672
14.0847	-0.6693
14.0976	-0.6663
14.1106	-0.6629
14.1235	-0.6594
14.1365	-0.6559
14.1494	-0.6523
14.1624	-0.6488
14.1753	-0.6454
14.1883	-0.6422
14.2012	-0.639
14.2142	-0.636
14.2271	-0.633
14.24	-0.63
14.253	-0.6271
14.2659	-0.6242
14.2789	-0.6214
14.2918	-0.6186
14.3048	-0.6159
14.3177	-0.6133
14.3307	-0.6108
14.3436	-0.6085
14.3566	-0.6064
14.3695	-0.6047
14.3824	-0.6034
14.3954	-0.6025
14.4083	-0.6021
14.4213	-0.602
14.4342	-0.6023
14.4472	-0.6027
14.4601	-0.6032
14.4731	-0.6036
14.486	-0.6038
14.499	-0.6039
14.5119	-0.6036
14.5248	-0.603
14.5378	-0.6022
14.5507	-0.601
14.5637	-0.5997
14.5766	-0.5983
14.5896	-0.5967
14.6025	-0.595
14.6155	-0.5933
14.6284	-0.5915
14.6414	-0.5897
14.6543	-0.5877
14.6672	-0.5857
14.6802	-0.5835
14.6931	-0.5811
14.7061	-0.5786
14.719	-0.5759
14.732	-0.5729
14.7449	-0.5697
14.7579	-0.5663
14.7708	-0.5629
14.7838	-0.5594
14.7967	-0.5561
14.8097	-0.553
14.8226	-0.5502
14.8355	-0.5478
14.8485	-0.5456
14.8614	-0.5438
14.8744	-0.5423
14.8873	-0.541
14.9003	-0.5399
14.9132	-0.5389
14.9262	-0.538
14.9391	-0.537
14.9521	-0.5359
14.965	-0.5345
14.9779	-0.5329
14.9909	-0.5309
15.0038	-0.5285
15.0168	-0.5258
15.0297	-0.5226
15.0427	-0.519
15.0556	-0.5151
15.0686	-0.511
15.0815	-0.5066
15.0945	-0.502
15.1074	-0.4973
15.1203	-0.4925
15.1333	-0.4877
15.1462	-0.4828
15.1592	-0.4779
15.1721	-0.4729
15.1851	-0.468
15.198	-0.4631
15.211	-0.4582
15.2239	-0.4535
15.2369	-0.4489
15.2498	-0.4445
15.2627	-0.4403
15.2757	-0.4362
15.2886	-0.4322
15.3016	-0.4283
15.3145	-0.4246
15.3275	-0.4208
15.3404	-0.4172
15.3534	-0.4136
15.3663	-0.4101
15.3793	-0.4067
15.3922	-0.4035
15.4051	-0.4004
15.4181	-0.3976
15.431	-0.3949
15.444	-0.3924
15.4569	-0.3902
15.4699	-0.3881
15.4828	-0.3862
15.4958	-0.3846
15.5087	-0.3832
15.5217	-0.3821
15.5346	-0.3813
15.5475	-0.3808
15.5605	-0.3805
15.5734	-0.3803
15.5864	-0.3802
15.5993	-0.38
15.6123	-0.3795
15.6252	-0.3787
15.6382	-0.3774
15.6511	-0.3757
15.6641	-0.3734
15.677	-0.3707
15.6899	-0.3675
15.7029	-0.3639
15.7158	-0.36
15.7288	-0.3558
15.7417	-0.3515
15.7547	-0.3472
15.7676	-0.3429
15.7806	-0.3387
15.7935	-0.3347
15.8065	-0.3308
15.8194	-0.3271
15.8323	-0.3235
15.8453	-0.3201
15.8582	-0.3168
15.8712	-0.3137
15.8841	-0.3106
15.8971	-0.3077
15.91	-0.3048
15.923	-0.302
15.9359	-0.2992
15.9489	-0.2964
15.9618	-0.2936
15.9747	-0.2908
15.9877	-0.2878
16.0006	-0.2849
16.0136	-0.2819
16.0265	-0.2788
16.0395	-0.2756
16.0524	-0.2724
16.0654	-0.2692
16.0783	-0.2659
16.0913	-0.2625
16.1042	-0.259
16.1171	-0.2555
16.1301	-0.2518
16.143	-0.248
16.156	-0.2442
16.1689	-0.2404
16.1819	-0.2366
16.1948	-0.2328
16.2078	-0.229
16.2207	-0.2254
16.2337	-0.2218
16.2466	-0.2182
16.2595	-0.2147
16.2725	-0.2112
16.2854	-0.2077
16.2984	-0.2042
16.3113	-0.2007
16.3243	-0.1973
16.3372	-0.194
16.3502	-0.1908
16.3631	-0.1877
16.3761	-0.1847
16.389	-0.1818
16.4019	-0.1791
16.4149	-0.1764
16.4278	-0.1738
16.4408	-0.1713
16.4537	-0.1689
16.4667	-0.1666
16.4796	-0.1643
16.4926	-0.1619
16.5055	-0.1596
16.5185	-0.1572
16.5314	-0.1546
16.5443	-0.152
16.5573	-0.1491
16.5702	-0.1462
16.5832	-0.1431
16.5961	-0.1399
16.6091	-0.1367
16.622	-0.1335
16.635	-0.1303
16.6479	-0.1273
16.6609	-0.1244
16.6738	-0.1216
16.6867	-0.1189
16.6997	-0.1164
16.7126	-0.1139
16.7256	-0.1115
16.7385	-0.1091
16.7515	-0.1067
16.7644	-0.1042
16.7774	-0.1018
16.7903	-0.0993
16.8033	-0.0967
16.8162	-0.0941
16.8291	-0.0915
16.8421	-0.0888
16.855	-0.0861
16.868	-0.0834
16.8809	-0.0808
16.8939	-0.0782
16.9068	-0.0756
16.9198	-0.0731
16.9327	-0.0707
16.9457	-0.0682
16.9586	-0.0658
16.9715	-0.0635
16.9845	-0.0611
16.9974	-0.0588
17.0104	-0.0565
17.0233	-0.0543
17.0363	-0.0522
17.0492	-0.0502
17.0622	-0.0482
17.0751	-0.0464
17.0881	-0.0447
17.101	-0.0431
17.1139	-0.0415
17.1269	-0.04
17.1398	-0.0385
17.1528	-0.0369
17.1657	-0.0353
17.1787	-0.0336
17.1916	-0.0317
17.2046	-0.0298
17.2175	-0.0277
17.2305	-0.0255
17.2434	-0.0233
17.2563	-0.021
17.2693	-0.0188
17.2822	-0.0167
17.2952	-0.0146
17.3081	-0.0127
17.3211	-0.011
17.334	-0.0094
17.347	-0.008
17.3599	-0.0066
17.3729	-0.0053
17.3858	-0.004
17.3987	-0.0027
17.4117	-0.0013
17.4246	2E-4
17.4376	0.0018
17.4505	0.0035
17.4635	0.0052
17.4764	0.0071
17.4894	0.009
17.5023	0.011
17.5153	0.0131
17.5282	0.0152
17.5412	0.0174
17.5541	0.0196
17.567	0.0219
17.58	0.0242
17.5929	0.0266
17.6059	0.0289
17.6188	0.0312
17.6318	0.0335
17.6447	0.0357
17.6577	0.038
17.6706	0.0402
17.6836	0.0424
17.6965	0.0447
17.7094	0.047
17.7224	0.0494
17.7353	0.0519
17.7483	0.0544
17.7612	0.0571
17.7742	0.0598
17.7871	0.0625
17.8001	0.0653
17.813	0.0681
17.826	0.0708
17.8389	0.0736
17.8518	0.0763
17.8648	0.0789
17.8777	0.0815
17.8907	0.0841
17.9036	0.0866
17.9166	0.0892
17.9295	0.0917
17.9425	0.0943
17.9554	0.0968
17.9684	0.0995
17.9813	0.1021
17.9942	0.1048
18.0072	0.1075
18.0201	0.1102
18.0331	0.113
18.046	0.1157
18.059	0.1183
18.0719	0.121
18.0849	0.1236
18.0978	0.1261
18.1108	0.1285
18.1237	0.1309
18.1366	0.1332
18.1496	0.1355
18.1625	0.1377
18.1755	0.1399
18.1884	0.142
18.2014	0.1442
18.2143	0.1463
18.2273	0.1485
18.2402	0.1506
18.2532	0.1528
18.2661	0.155
18.279	0.1572
18.292	0.1594
18.3049	0.1617
18.3179	0.1639
18.3308	0.1662
18.3438	0.1684
18.3567	0.1707
18.3697	0.1728
18.3826	0.1749
18.3956	0.177
18.4085	0.179
18.4214	0.1809
18.4344	0.1828
18.4473	0.1847
18.4603	0.1865
18.4732	0.1884
18.4862	0.1903
18.4991	0.1922
18.5121	0.1941
18.525	0.196
18.538	0.198
18.5509	0.1999
18.5638	0.2019
18.5768	0.2039
18.5897	0.2059
18.6027	0.2079
18.6156	0.2099
18.6286	0.2119
18.6415	0.214
18.6545	0.216
18.6674	0.2181
18.6804	0.2202
18.6933	0.2223
18.7062	0.2244
18.7192	0.2265
18.7321	0.2287
18.7451	0.2308
18.758	0.2329
18.771	0.2351
18.7839	0.2372
18.7969	0.2393
18.8098	0.2415
18.8228	0.2436
18.8357	0.2456
18.8486	0.2477
18.8616	0.2497
18.8745	0.2516
18.8875	0.2536
18.9004	0.2554
18.9134	0.2573
18.9263	0.2591
18.9393	0.261
18.9522	0.2628
18.9652	0.2646
18.9781	0.2665
18.991	0.2683
19.004	0.2702
19.0169	0.2721
19.0299	0.274
19.0428	0.2759
19.0558	0.2778
19.0687	0.2797
19.0817	0.2817
19.0946	0.2836
19.1076	0.2855
19.1205	0.2875
19.1334	0.2894
19.1464	0.2913
19.1593	0.2932
19.1723	0.2952
19.1852	0.2971
19.1982	0.299
19.2111	0.3009
19.2241	0.3027
19.237	0.3045
19.25	0.3063
19.2629	0.308
19.2758	0.3097
19.2888	0.3114
19.3017	0.313
19.3147	0.3146
19.3276	0.3161
19.3406	0.3176
19.3535	0.3192
19.3665	0.3207
19.3794	0.3221
19.3924	0.3236
19.4053	0.325
19.4182	0.3263
19.4312	0.3277
19.4441	0.329
19.4571	0.3303
19.47	0.3316
19.483	0.3329
19.4959	0.3343
19.5089	0.3357
19.5218	0.3371
19.5348	0.3386
19.5477	0.3401
19.5606	0.3416
19.5736	0.3432
19.5865	0.3448
19.5995	0.3463
19.6124	0.3478
19.6254	0.3492
19.6383	0.3505
19.6513	0.3517
19.6642	0.3528
19.6772	0.3537
19.6901	0.3545
19.703	0.3552
19.716	0.3558
19.7289	0.3563
19.7419	0.3568
19.7548	0.3573
19.7678	0.3578
19.7807	0.3584
19.7937	0.3591
19.8066	0.3599
19.8196	0.3608
19.8325	0.3618
19.8454	0.3628
19.8584	0.3639
19.8713	0.3651
19.8843	0.3662
19.8972	0.3673
19.9102	0.3683
19.9231	0.3692
19.9361	0.37
19.949	0.3707
19.962	0.3714
19.9749	0.3719
19.9878	0.3723
20.0008	0.3727
20.0137	0.373
20.0267	0.3732
20.0396	0.3734
20.0526	0.3735
20.0655	0.3736
20.0785	0.3737
20.0914	0.3737
20.1044	0.3737
20.1173	0.3736
20.1303	0.3736
20.1432	0.3736
20.1561	0.3736
20.1691	0.3736
20.182	0.3737
20.195	0.3739
20.2079	0.3742
20.2209	0.3745
20.2338	0.3749
20.2468	0.3753
20.2597	0.3758
20.2727	0.3763
20.2856	0.3768
20.2985	0.3773
20.3115	0.3779
20.3244	0.3785
20.3374	0.3791
20.3503	0.3799
20.3633	0.3807
20.3762	0.3816
20.3892	0.3827
20.4021	0.3838
20.4151	0.385
20.428	0.3863
20.4409	0.3877
20.4539	0.3891
20.4668	0.3905
20.4798	0.3919
20.4927	0.3933
20.5057	0.3945
20.5186	0.3956
20.5316	0.3965
20.5445	0.3973
20.5575	0.3979
20.5704	0.3984
20.5833	0.3988
20.5963	0.3991
20.6092	0.3993
20.6222	0.3996
20.6351	0.3999
20.6481	0.4002
20.661	0.4007
20.674	0.4013
20.6869	0.4019
20.6999	0.4028
20.7128	0.4037
20.7257	0.4047
20.7387	0.4059
20.7516	0.4072
20.7646	0.4085
20.7775	0.4099
20.7905	0.4114
20.8034	0.4129
20.8164	0.4145
20.8293	0.4161
20.8423	0.4176
20.8552	0.4192
20.8681	0.4209
20.8811	0.4226
20.894	0.4243
20.907	0.4261
20.9199	0.4281
20.9329	0.4301
20.9458	0.4322
20.9588	0.4345
20.9717	0.4368
20.9847	0.4391
20.9976	0.4415
21.0105	0.4439
21.0235	0.4462
21.0364	0.4486
21.0494	0.4509
21.0623	0.4531
21.0753	0.4552
21.0882	0.4573
21.1012	0.4593
21.1141	0.4612
21.1271	0.463
21.14	0.4647
21.1529	0.4664
21.1659	0.4679
21.1788	0.4695
21.1918	0.4709
21.2047	0.4723
21.2177	0.4737
21.2306	0.475
21.2436	0.4763
21.2565	0.4774
21.2695	0.4786
21.2824	0.4796
21.2953	0.4805
21.3083	0.4813
21.3212	0.482
21.3342	0.4827
21.3471	0.4833
21.3601	0.4839
21.373	0.4844
21.386	0.485
21.3989	0.4856
21.4119	0.4862
21.4248	0.4869
21.4377	0.4875
21.4507	0.4882
21.4636	0.4888
21.4766	0.4893
21.4895	0.4897
21.5025	0.4899
21.5154	0.49
21.5284	0.4898
21.5413	0.4893
21.5543	0.4885
21.5672	0.4874
21.5801	0.486
21.5931	0.4843
21.606	0.4825
21.619	0.4806
21.6319	0.4788
21.6449	0.477
21.6578	0.4755
21.6708	0.4743
21.6837	0.4735
21.6967	0.4731
21.7096	0.473
21.7225	0.4733
21.7355	0.4739
21.7484	0.4748
21.7614	0.4758
21.7743	0.4769
21.7873	0.4779
21.8002	0.4789
21.8132	0.4796
21.8261	0.48
21.8391	0.4802
21.852	0.48
21.8649	0.4796
21.8779	0.4788
21.8908	0.4779
21.9038	0.4767
21.9167	0.4755
21.9297	0.4743
21.9426	0.4731
21.9556	0.472
21.9685	0.471
21.9815	0.4701
21.9944	0.4694
22.0073	0.4688
22.0203	0.4684
22.0332	0.468
22.0462	0.4678
22.0591	0.4676
22.0721	0.4673
22.085	0.467
22.098	0.4666
22.1109	0.4661
22.1239	0.4654
22.1368	0.4646
22.1497	0.4636
22.1627	0.4624
22.1756	0.461
22.1886	0.4596
22.2015	0.4582
22.2145	0.4567
22.2274	0.4554
22.2404	0.4541
22.2533	0.453
22.2663	0.452
22.2792	0.4512
22.2921	0.4506
22.3051	0.45
22.318	0.4495
22.331	0.449
22.3439	0.4485
22.3569	0.448
22.3698	0.4474
22.3828	0.4467
22.3957	0.446
22.4087	0.4451
22.4216	0.4441
22.4345	0.443
22.4475	0.442
22.4604	0.4409
22.4734	0.44
22.4863	0.4392
22.4993	0.4386
22.5122	0.4383
22.5252	0.4382
22.5381	0.4383
22.5511	0.4387
22.564	0.4392
22.5769	0.4399
22.5899	0.4407
22.6028	0.4416
22.6158	0.4425
22.6287	0.4433
22.6417	0.4442
22.6546	0.4449
22.6676	0.4456
22.6805	0.4463
22.6935	0.4468
22.7064	0.4474
22.7193	0.4479
22.7323	0.4484
22.7452	0.449
22.7582	0.4496
22.7711	0.4503
22.7841	0.451
22.797	0.4518
22.81	0.4526
22.8229	0.4535
22.8359	0.4544
22.8488	0.4553
22.8618	0.4563
22.8747	0.4572
22.8876	0.4582
22.9006	0.4591
22.9135	0.46
22.9265	0.4609
22.9394	0.4618
22.9524	0.4626
22.9653	0.4633
22.9783	0.4641
22.9912	0.4648
23.0042	0.4655
23.0171	0.4663
23.03	0.467
23.043	0.4678
23.0559	0.4687
23.0689	0.4696
23.0818	0.4705
23.0948	0.4714
23.1077	0.4724
23.1207	0.4733
23.1336	0.4742
23.1466	0.4751
23.1595	0.4759
23.1724	0.4767
23.1854	0.4775
23.1983	0.4783
23.2113	0.479
23.2242	0.4798
23.2372	0.4806
23.2501	0.4813
23.2631	0.4821
23.276	0.4829
23.289	0.4838
23.3019	0.4846
23.3148	0.4855
23.3278	0.4864
23.3407	0.4873
23.3537	0.4882
23.3666	0.4892
23.3796	0.4902
23.3925	0.4912
23.4055	0.4922
23.4184	0.4932
23.4314	0.4942
23.4443	0.4951
23.4572	0.4961
23.4702	0.497
23.4831	0.4979
23.4961	0.4988
23.509	0.4997
23.522	0.5006
23.5349	0.5015
23.5479	0.5025
23.5608	0.5036
23.5738	0.5047
23.5867	0.5059
23.5996	0.5071
23.6126	0.5083
23.6255	0.5096
23.6385	0.5109
23.6514	0.5123
23.6644	0.5136
23.6773	0.515
23.6903	0.5163
23.7032	0.5176
23.7162	0.5189
23.7291	0.5202
23.742	0.5214
23.755	0.5227
23.7679	0.5239
23.7809	0.5251
23.7938	0.5263
23.8068	0.5275
23.8197	0.5287
23.8327	0.5299
23.8456	0.5312
23.8586	0.5324
23.8715	0.5337
23.8844	0.535
23.8974	0.5363
23.9103	0.5376
23.9233	0.5388
23.9362	0.5401
23.9492	0.5413
23.9621	0.5425
23.9751	0.5437
23.988	0.5449
24.001	0.546
24.0139	0.5472
24.0268	0.5483
24.0398	0.5494
24.0527	0.5505
24.0657	0.5517
24.0786	0.5528
24.0916	0.5539
24.1045	0.555
24.1175	0.5561
24.1304	0.5572
24.1434	0.5583
24.1563	0.5592
24.1692	0.5601
24.1822	0.5609
24.1951	0.5616
24.2081	0.5622
24.221	0.5626
24.234	0.5629
24.2469	0.5631
24.2599	0.5633
24.2728	0.5634
24.2858	0.5635
24.2987	0.5637
24.3116	0.5639
24.3246	0.5641
24.3375	0.5644
24.3505	0.5648
24.3634	0.5652
24.3764	0.5656
24.3893	0.5662
24.4023	0.5667
24.4152	0.5672
24.4282	0.5677
24.4411	0.5682
24.454	0.5686
24.467	0.569
24.4799	0.5694
24.4929	0.5697
24.5058	0.5701
24.5188	0.5704
24.5317	0.5708
24.5447	0.5711
24.5576	0.5715
24.5706	0.572
24.5835	0.5724
24.5964	0.5729
24.6094	0.5734
24.6223	0.5739
24.6353	0.5744
24.6482	0.5748
24.6612	0.5753
24.6741	0.5757
24.6871	0.576
24.7	0.5763
24.713	0.5767
24.7259	0.5769
24.7388	0.5772
24.7518	0.5775
24.7647	0.5777
24.7777	0.5779
24.7906	0.5781
24.8036	0.5783
24.8165	0.5785
24.8295	0.5786
24.8424	0.5788
24.8554	0.5791
24.8683	0.5793
24.8812	0.5797
24.8942	0.5801
24.9071	0.5806
24.9201	0.5812
24.933	0.5819
24.946	0.5826
24.9589	0.5834
24.9719	0.5841
24.9848	0.5849
24.9978	0.5856
25.0107	0.5862
25.0236	0.5868
25.0366	0.5872
25.0495	0.5875
25.0625	0.5877
25.0754	0.5878
25.0884	0.5878
25.1013	0.5877
25.1143	0.5876
25.1272	0.5874
25.1402	0.5873
25.1531	0.5871
25.166	0.587
25.179	0.587
25.1919	0.587
25.2049	0.5871
25.2178	0.5873
25.2308	0.5875
25.2437	0.5878
25.2567	0.5881
25.2696	0.5885
25.2826	0.5888
25.2955	0.5892
25.3084	0.5895
25.3214	0.5898
25.3343	0.5901
25.3473	0.5904
25.3602	0.5907
25.3732	0.5909
25.3861	0.5912
25.3991	0.5914
25.412	0.5917
25.425	0.5919
25.4379	0.5922
25.4508	0.5925
25.4638	0.5928
25.4767	0.5931
25.4897	0.5935
25.5026	0.5939
25.5156	0.5943
25.5285	0.5947
25.5415	0.5951
25.5544	0.5955
25.5674	0.596
25.5803	0.5964
25.5933	0.5969
25.6062	0.5973
25.6191	0.5977
25.6321	0.598
25.645	0.5982
25.658	0.5984
25.6709	0.5984
25.6839	0.5984
25.6968	0.5983
25.7098	0.5981
25.7227	0.5978
25.7357	0.5976
25.7486	0.5974
25.7615	0.5972
25.7745	0.5971
25.7874	0.5972
25.8004	0.5974
25.8133	0.5977
25.8263	0.5981
25.8392	0.5987
25.8522	0.5994
25.8651	0.6002
25.8781	0.601
25.891	0.6019
25.9039	0.6028
25.9169	0.6036
25.9298	0.6044
25.9428	0.6052
25.9557	0.6059
25.9687	0.6065
25.9816	0.607
25.9946	0.6074
26.0075	0.6077
26.0205	0.6079
26.0334	0.608
26.0463	0.608
26.0593	0.608
26.0722	0.6079
26.0852	0.6077
26.0981	0.6076
26.1111	0.6075
26.124	0.6075
26.137	0.6075
26.1499	0.6077
26.1629	0.608
26.1758	0.6084
26.1887	0.6089
26.2017	0.6095
26.2146	0.6101
26.2276	0.6108
26.2405	0.6115
26.2535	0.6122
26.2664	0.6129
26.2794	0.6137
26.2923	0.6144
26.3053	0.6152
26.3182	0.6159
26.3311	0.6165
26.3441	0.6172
26.357	0.6178
26.37	0.6183
26.3829	0.6188
26.3959	0.6192
26.4088	0.6196
26.4218	0.6199
26.4347	0.6201
26.4477	0.6203
26.4606	0.6205
26.4735	0.6206
26.4865	0.6208
26.4994	0.6209
26.5124	0.621
26.5253	0.6212
26.5383	0.6213
26.5512	0.6215
26.5642	0.6217
26.5771	0.6219
26.5901	0.6221
26.603	0.6224
26.6159	0.6227
26.6289	0.623
26.6418	0.6233
26.6548	0.6237
26.6677	0.6241
26.6807	0.6245
26.6936	0.625
26.7066	0.6254
26.7195	0.6259
26.7325	0.6264
26.7454	0.6268
26.7583	0.6273
26.7713	0.6277
26.7842	0.6282
26.7972	0.6286
26.8101	0.629
26.8231	0.6295
26.836	0.6299
26.849	0.6303
26.8619	0.6307
26.8749	0.6311
26.8878	0.6315
26.9007	0.6318
26.9137	0.6322
26.9266	0.6326
26.9396	0.6329
26.9525	0.6333
26.9655	0.6337
26.9784	0.634
26.9914	0.6344
27.0043	0.6347
27.0173	0.635
27.0302	0.6352
27.0431	0.6354
27.0561	0.6356
27.069	0.6357
27.082	0.6358
27.0949	0.6359
27.1079	0.636
27.1208	0.6361
27.1338	0.6362
27.1467	0.6364
27.1597	0.6366
27.1726	0.6369
27.1855	0.6372
27.1985	0.6375
27.2114	0.6379
27.2244	0.6383
27.2373	0.6386
27.2503	0.639
27.2632	0.6393
27.2762	0.6396
27.2891	0.6398
27.3021	0.64
27.315	0.6402
27.3279	0.6404
27.3409	0.6406
27.3538	0.6409
27.3668	0.6411
27.3797	0.6413
27.3927	0.6416
27.4056	0.6419
27.4186	0.6422
27.4315	0.6424
27.4445	0.6427
27.4574	0.6429
27.4703	0.643
27.4833	0.6431
27.4962	0.6432
27.5092	0.6433
27.5221	0.6433
27.5351	0.6433
27.548	0.6432
27.561	0.6432
27.5739	0.6433
27.5869	0.6433
27.5998	0.6433
27.6127	0.6434
27.6257	0.6435
27.6386	0.6436
27.6516	0.6438
27.6645	0.6439
27.6775	0.6441
27.6904	0.6443
27.7034	0.6445
27.7163	0.6448
27.7293	0.645
27.7422	0.6453
27.7551	0.6456
27.7681	0.6459
27.781	0.6462
27.794	0.6465
27.8069	0.6468
27.8199	0.6471
27.8328	0.6474
27.8458	0.6477
27.8587	0.6479
27.8717	0.6482
27.8846	0.6485
27.8975	0.6488
27.9105	0.6491
27.9234	0.6494
27.9364	0.6497
27.9493	0.6501
27.9623	0.6504
27.9752	0.6507
27.9882	0.651
28.0011	0.6513
28.0141	0.6516
28.027	0.6519
28.0399	0.6521
28.0529	0.6524
28.0658	0.6526
28.0788	0.6529
28.0917	0.6532
28.1047	0.6534
28.1176	0.6537
28.1306	0.654
28.1435	0.6543
28.1565	0.6546
28.1694	0.6549
28.1824	0.6552
28.1953	0.6555
28.2082	0.6559
28.2212	0.6561
28.2341	0.6564
28.2471	0.6567
28.26	0.6569
28.273	0.6571
28.2859	0.6574
28.2989	0.6576
28.3118	0.6578
28.3248	0.6579
28.3377	0.6582
28.3506	0.6584
28.3636	0.6586
28.3765	0.6588
28.3895	0.659
28.4024	0.6593
28.4154	0.6595
28.4283	0.6598
28.4413	0.6601
28.4542	0.6604
28.4672	0.6606
28.4801	0.6609
28.493	0.6612
28.506	0.6615
28.5189	0.6618
28.5319	0.6621
28.5448	0.6624
28.5578	0.6627
28.5707	0.663
28.5837	0.6633
28.5966	0.6636
28.6096	0.6638
28.6225	0.6641
28.6354	0.6643
28.6484	0.6645
28.6613	0.6648
28.6743	0.665
28.6872	0.6652
28.7002	0.6654
28.7131	0.6656
28.7261	0.6659
28.739	0.6661
28.752	0.6664
28.7649	0.6666
28.7778	0.6669
28.7908	0.6671
28.8037	0.6674
28.8167	0.6676
28.8296	0.6678
28.8426	0.668
28.8555	0.6682
28.8685	0.6684
28.8814	0.6686
28.8944	0.6687
28.9073	0.6689
28.9202	0.669
28.9332	0.6692
28.9461	0.6694
28.9591	0.6695
28.972	0.6697
28.985	0.6699
28.9979	0.6701
29.0109	0.6703
29.0238	0.6705
29.0368	0.6707
29.0497	0.6709
29.0626	0.6711
29.0756	0.6713
29.0885	0.6715
29.1015	0.6718
29.1144	0.672
29.1274	0.6721
29.1403	0.6723
29.1533	0.6725
29.1662	0.6727
29.1792	0.6728
29.1921	0.673
29.205	0.6731
29.218	0.6732
29.2309	0.6734
29.2439	0.6735
29.2568	0.6737
29.2698	0.6738
29.2827	0.674
29.2957	0.6742
29.3086	0.6744
29.3216	0.6747
29.3345	0.6749
29.3474	0.6752
29.3604	0.6754
29.3733	0.6757
29.3863	0.6759
29.3992	0.6762
29.4122	0.6764
29.4251	0.6766
29.4381	0.6769
29.451	0.6771
29.464	0.6773
29.4769	0.6775
29.4898	0.6777
29.5028	0.6779
29.5157	0.6781
29.5287	0.6784
29.5416	0.6786
29.5546	0.6788
29.5675	0.6791
29.5805	0.6794
29.5934	0.6797
29.6064	0.68
29.6193	0.6803
29.6322	0.6806
29.6452	0.681
29.6581	0.6813
29.6711	0.6817
29.684	0.682
29.697	0.6824
29.7099	0.6827
29.7229	0.683
29.7358	0.6832
29.7488	0.6835
29.7617	0.6837
29.7746	0.684
29.7876	0.6842
29.8005	0.6844
29.8135	0.6846
29.8264	0.6849
29.8394	0.6851
29.8523	0.6854
29.8653	0.6857
29.8782	0.686
29.8912	0.6863
29.9041	0.6866
29.917	0.687
29.93	0.6873
29.9429	0.6876
29.9559	0.688
29.9688	0.6883
29.9818	0.6886
29.9947	0.6888
30.0077	0.6891
30.0206	0.6894
30.0336	0.6896
30.0465	0.6899
30.0594	0.6901
30.0724	0.6904
30.0853	0.6906
30.0983	0.6909
30.1112	0.6912
30.1242	0.6915
30.1371	0.6918
30.1501	0.6921
30.163	0.6925
30.176	0.6928
30.1889	0.6932
30.2018	0.6935
30.2148	0.6939
30.2277	0.6942
30.2407	0.6946
30.2536	0.6949
30.2666	0.6952
30.2795	0.6955
30.2925	0.6959
30.3054	0.6962
30.3184	0.6965
30.3313	0.6968
30.3442	0.6971
30.3572	0.6974
30.3701	0.6977
30.3831	0.698
30.396	0.6984
30.409	0.6987
30.4219	0.699
30.4349	0.6994
30.4478	0.6997
30.4608	0.7001
30.4737	0.7004
30.4866	0.7007
30.4996	0.701
30.5125	0.7013
30.5255	0.7017
30.5384	0.702
30.5514	0.7022
30.5643	0.7025
30.5773	0.7028
30.5902	0.7031
30.6032	0.7034
30.6161	0.7036
30.629	0.7039
30.642	0.7042
30.6549	0.7045
30.6679	0.7048
30.6808	0.7051
30.6938	0.7054
30.7067	0.7058
30.7197	0.7061
30.7326	0.7064
30.7456	0.7068
30.7585	0.7071
30.7714	0.7074
30.7844	0.7077
30.7973	0.708
30.8103	0.7084
30.8232	0.7087
30.8362	0.709
30.8491	0.7093
30.8621	0.7096
30.875	0.7099
30.888	0.7102
30.9009	0.7106
30.9139	0.7109
30.9268	0.7113
30.9397	0.7116
30.9527	0.7119
30.9656	0.7123
30.9786	0.7126
30.9915	0.713
31.0045	0.7133
31.0174	0.7137
31.0304	0.714
31.0433	0.7144
31.0563	0.7147
31.0692	0.715
31.0821	0.7154
31.0951	0.7157
31.108	0.7161
31.121	0.7164
31.1339	0.7168
31.1469	0.7171
31.1598	0.7175
31.1728	0.7179
31.1857	0.7182
31.1987	0.7186
31.2116	0.7189
31.2245	0.7193
31.2375	0.7196
31.2504	0.72
31.2634	0.7203
31.2763	0.7206
31.2893	0.7209
31.3022	0.7213
31.3152	0.7216
31.3281	0.7219
31.3411	0.7222
31.354	0.7226
31.3669	0.7229
31.3799	0.7232
31.3928	0.7235
31.4058	0.7239
31.4187	0.7242
31.4317	0.7245
31.4446	0.7249
31.4576	0.7252
31.4705	0.7255
31.4835	0.7258
31.4964	0.7262
31.5093	0.7265
31.5223	0.7268
31.5352	0.7272
31.5482	0.7275
31.5611	0.7278
31.5741	0.7282
31.587	0.7285
31.6	0.7288
31.6129	0.7292
31.6259	0.7295
31.6388	0.7298
31.6517	0.7301
31.6647	0.7305
31.6776	0.7308
31.6906	0.7311
31.7035	0.7315
31.7165	0.7318
31.7294	0.7321
31.7424	0.7324
31.7553	0.7327
31.7683	0.7331
31.7812	0.7334
31.7941	0.7337
31.8071	0.734
31.82	0.7343
31.833	0.7346
31.8459	0.7349
31.8589	0.7352
31.8718	0.7356
31.8848	0.7359
31.8977	0.7362
31.9107	0.7365
31.9236	0.7368
31.9365	0.7371
31.9495	0.7374
31.9624	0.7377
31.9754	0.738
31.9883	0.7383
32.0013	0.7386
32.0142	0.7389
32.0272	0.7392
32.0401	0.7395
32.0531	0.7398
32.066	0.7401
32.0789	0.7404
32.0919	0.7407
32.1048	0.741
32.1178	0.7412
32.1307	0.7415
32.1437	0.7418
32.1566	0.7421
32.1696	0.7424
32.1825	0.7427
32.1955	0.743
32.2084	0.7433
32.2213	0.7435
32.2343	0.7438
32.2472	0.7441
32.2602	0.7444
32.2731	0.7447
32.2861	0.7449
32.299	0.7452
32.312	0.7455
32.3249	0.7458
32.3379	0.746
32.3508	0.7463
32.3637	0.7466
32.3767	0.7468
32.3896	0.7471
32.4026	0.7474
32.4155	0.7477
32.4285	0.7479
32.4414	0.7482
32.4544	0.7485
32.4673	0.7487
32.4803	0.749
32.4932	0.7492
32.5061	0.7495
32.5191	0.7498
32.532	0.75
32.545	0.7503
32.5579	0.7506
32.5709	0.7508
32.5838	0.7511
32.5968	0.7513
32.6097	0.7516
32.6227	0.7518
32.6356	0.7521
32.6485	0.7524
32.6615	0.7526
32.6744	0.7529
32.6874	0.7531
32.7003	0.7534
32.7133	0.7536
32.7262	0.7539
32.7392	0.7541
32.7521	0.7544
32.7651	0.7546
32.778	0.7549
32.7909	0.7551
32.8039	0.7554
32.8168	0.7556
32.8298	0.7558
32.8427	0.7561
32.8557	0.7563
32.8686	0.7566
32.8816	0.7568
32.8945	0.7571
32.9075	0.7573
32.9204	0.7576
32.9333	0.7578
32.9463	0.758
32.9592	0.7583
32.9722	0.7585
32.9851	0.7587
32.9981	0.759
33.011	0.7592
33.024	0.7595
33.0369	0.7597
33.0499	0.7599
33.0628	0.7602
33.0757	0.7604
33.0887	0.7606
33.1016	0.7609
33.1146	0.7611
33.1275	0.7613
33.1405	0.7616
33.1534	0.7618
33.1664	0.762
33.1793	0.7623
33.1923	0.7625
33.2052	0.7627
33.2181	0.763
33.2311	0.7632
33.244	0.7634
33.257	0.7636
33.2699	0.7639
33.2829	0.7641
33.2958	0.7643
33.3088	0.7645
33.3217	0.7648
33.3347	0.765
33.3476	0.7652
33.3605	0.7654
33.3735	0.7657
33.3864	0.7659
33.3994	0.7661
33.4123	0.7663
33.4253	0.7666
33.4382	0.7668
33.4512	0.767
33.4641	0.7672
33.4771	0.7674
33.49	0.7677
33.5029	0.7679
33.5159	0.7681
33.5288	0.7683
33.5418	0.7685
33.5547	0.7687
33.5677	0.769
33.5806	0.7692
33.5936	0.7694
33.6065	0.7696
33.6195	0.7698
33.6324	0.77
33.6454	0.7703
33.6583	0.7705
33.6712	0.7707
33.6842	0.7709
33.6971	0.7711
33.7101	0.7713
33.723	0.7715
33.736	0.7717
33.7489	0.772
33.7619	0.7722
33.7748	0.7724
33.7878	0.7726
33.8007	0.7728
33.8136	0.773
33.8266	0.7732
33.8395	0.7734
33.8525	0.7736
33.8654	0.7738
33.8784	0.774
33.8913	0.7743
33.9043	0.7745
33.9172	0.7747
33.9302	0.7749
33.9431	0.7751
33.956	0.7753
33.969	0.7755
33.9819	0.7757
33.9949	0.7759
34.0078	0.7761
34.0208	0.7763
34.0337	0.7765
34.0467	0.7767
34.0596	0.7769
34.0726	0.7771
34.0855	0.7773
34.0984	0.7775
34.1114	0.7777
34.1243	0.7779
34.1373	0.7781
34.1502	0.7783
34.1632	0.7785
34.1761	0.7787
34.1891	0.7789
34.202	0.7791
34.215	0.7793
34.2279	0.7795
34.2408	0.7797
34.2538	0.7799
34.2667	0.7801
34.2797	0.7803
34.2926	0.7805
34.3056	0.7807
34.3185	0.7809
34.3315	0.7811
34.3444	0.7813
34.3574	0.7815
34.3703	0.7817
34.3832	0.7819
34.3962	0.782
34.4091	0.7822
34.4221	0.7824
34.435	0.7826
34.448	0.7828
34.4609	0.783
34.4739	0.7832
34.4868	0.7834
34.4998	0.7836
34.5127	0.7838
34.5256	0.784
34.5386	0.7842
34.5515	0.7843
34.5645	0.7845
34.5774	0.7847
34.5904	0.7849
34.6033	0.7851
34.6163	0.7853
34.6292	0.7855
34.6422	0.7857
34.6551	0.7858
34.668	0.786
34.681	0.7862
34.6939	0.7864
34.7069	0.7866
34.7198	0.7868
34.7328	0.787
34.7457	0.7872
34.7587	0.7873
34.7716	0.7875
34.7846	0.7877
34.7975	0.7879
34.8104	0.7881
34.8234	0.7883
34.8363	0.7884
34.8493	0.7886
34.8622	0.7888
34.8752	0.789
34.8881	0.7892
34.9011	0.7893
34.914	0.7895
34.927	0.7897
34.9399	0.7899
34.9528	0.7901
34.9658	0.7903
34.9787	0.7904
34.9917	0.7906
35.0046	0.7908
35.0176	0.791
35.0305	0.7912
35.0435	0.7913
35.0564	0.7915
35.0694	0.7917
35.0823	0.7919
35.0952	0.792
35.1082	0.7922
35.1211	0.7924
35.1341	0.7926
35.147	0.7927
35.16	0.7929
35.1729	0.7931
35.1859	0.7933
35.1988	0.7935
35.2118	0.7936
35.2247	0.7938
35.2376	0.794
35.2506	0.7942
35.2635	0.7943
35.2765	0.7945
35.2894	0.7947
35.3024	0.7948
35.3153	0.795
35.3283	0.7952
35.3412	0.7954
35.3542	0.7955
35.3671	0.7957
35.38	0.7959
35.393	0.7961
35.4059	0.7962
35.4189	0.7964
35.4318	0.7966
35.4448	0.7967
35.4577	0.7969
35.4707	0.7971
35.4836	0.7972
35.4966	0.7974
35.5095	0.7976
35.5224	0.7978
35.5354	0.7979
35.5483	0.7981
35.5613	0.7983
35.5742	0.7984
35.5872	0.7986
35.6001	0.7988
35.6131	0.7989
35.626	0.7991
35.639	0.7993
35.6519	0.7994
35.6648	0.7996
35.6778	0.7998
35.6907	0.7999
35.7037	0.8001
35.7166	0.8003
35.7296	0.8004
35.7425	0.8006
35.7555	0.8008
35.7684	0.8009
35.7814	0.8011
35.7943	0.8012
35.8072	0.8014
35.8202	0.8016
35.8331	0.8017
35.8461	0.8019
35.859	0.8021
35.872	0.8022
35.8849	0.8024
35.8979	0.8026
35.9108	0.8027
35.9238	0.8029
35.9367	0.803
35.9496	0.8032
35.9626	0.8034
35.9755	0.8035
35.9885	0.8037
36.0014	0.8038
36.0144	0.804
36.0273	0.8042
36.0403	0.8043
36.0532	0.8045
36.0662	0.8046
36.0791	0.8048
36.092	0.805
36.105	0.8051
36.1179	0.8053
36.1309	0.8054
36.1438	0.8056
36.1568	0.8057
36.1697	0.8059
36.1827	0.8061
36.1956	0.8062
36.2086	0.8064
36.2215	0.8065
36.2345	0.8067
36.2474	0.8068
36.2603	0.807
36.2733	0.8072
36.2862	0.8073
36.2992	0.8075
36.3121	0.8076
36.3251	0.8078
36.338	0.8079
36.351	0.8081
36.3639	0.8082
36.3769	0.8084
36.3898	0.8085
36.4027	0.8087
36.4157	0.8089
36.4286	0.809
36.4416	0.8092
36.4545	0.8093
36.4675	0.8095
36.4804	0.8096
36.4934	0.8098
36.5063	0.8099
36.5193	0.8101
36.5322	0.8102
36.5451	0.8104
36.5581	0.8105
36.571	0.8107
36.584	0.8108
36.5969	0.811
36.6099	0.8111
36.6228	0.8113
36.6358	0.8114
36.6487	0.8116
36.6617	0.8117
36.6746	0.8119
36.6875	0.812
36.7005	0.8122
36.7134	0.8123
36.7264	0.8125
36.7393	0.8126
36.7523	0.8128
36.7652	0.8129
36.7782	0.8131
36.7911	0.8132
36.8041	0.8134
36.817	0.8135
36.8299	0.8137
36.8429	0.8138
36.8558	0.814
36.8688	0.8141
36.8817	0.8142
36.8947	0.8144
36.9076	0.8145
36.9206	0.8147
36.9335	0.8148
36.9465	0.815
36.9594	0.8151
36.9723	0.8153
36.9853	0.8154
36.9982	0.8156
37.0112	0.8157
37.0241	0.8158
37.0371	0.816
37.05	0.8161
37.063	0.8163
37.0759	0.8164
37.0889	0.8166
37.1018	0.8167
37.1147	0.8168
37.1277	0.817
37.1406	0.8171
37.1536	0.8173
37.1665	0.8174
37.1795	0.8176
37.1924	0.8177
37.2054	0.8178
37.2183	0.818
37.2313	0.8181
37.2442	0.8183
37.2571	0.8184
37.2701	0.8185
37.283	0.8187
37.296	0.8188
37.3089	0.819
37.3219	0.8191
37.3348	0.8192
37.3478	0.8194
37.3607	0.8195
37.3737	0.8197
37.3866	0.8198
37.3995	0.8199
37.4125	0.8201
37.4254	0.8202
37.4384	0.8204
37.4513	0.8205
37.4643	0.8206
37.4772	0.8208
37.4902	0.8209
37.5031	0.821
37.5161	0.8212
37.529	0.8213
37.5419	0.8215
37.5549	0.8216
37.5678	0.8217
37.5808	0.8219
37.5937	0.822
37.6067	0.8221
37.6196	0.8223
37.6326	0.8224
37.6455	0.8225
37.6585	0.8227
37.6714	0.8228
37.6843	0.823
37.6973	0.8231
37.7102	0.8232
37.7232	0.8234
37.7361	0.8235
37.7491	0.8236
37.762	0.8238
37.775	0.8239
37.7879	0.824
37.8009	0.8242
37.8138	0.8243
37.8267	0.8244
37.8397	0.8246
37.8526	0.8247
37.8656	0.8248
37.8785	0.825
37.8915	0.8251
37.9044	0.8252
37.9174	0.8254
37.9303	0.8255
37.9433	0.8256
37.9562	0.8257
37.9691	0.8259
37.9821	0.826
37.995	0.8261
38.008	0.8263
38.0209	0.8264
38.0339	0.8265
38.0468	0.8267
38.0598	0.8268
38.0727	0.8269
38.0857	0.8271
38.0986	0.8272
38.1115	0.8273
38.1245	0.8274
38.1374	0.8276
38.1504	0.8277
38.1633	0.8278
38.1763	0.828
38.1892	0.8281
38.2022	0.8282
38.2151	0.8283
38.2281	0.8285
38.241	0.8286
38.2539	0.8287
38.2669	0.8289
38.2798	0.829
38.2928	0.8291
38.3057	0.8292
38.3187	0.8294
38.3316	0.8295
38.3446	0.8296
38.3575	0.8298
38.3705	0.8299
38.3834	0.83
38.3963	0.8301
38.4093	0.8303
38.4222	0.8304
38.4352	0.8305
38.4481	0.8306
38.4611	0.8308
38.474	0.8309
38.487	0.831
38.4999	0.8311
38.5129	0.8313
38.5258	0.8314
38.5387	0.8315
38.5517	0.8316
38.5646	0.8318
38.5776	0.8319
38.5905	0.832
38.6035	0.8321
38.6164	0.8323
38.6294	0.8324
38.6423	0.8325
38.6553	0.8326
38.6682	0.8327
38.6811	0.8329
38.6941	0.833
38.707	0.8331
38.72	0.8332
38.7329	0.8334
38.7459	0.8335
38.7588	0.8336
38.7718	0.8337
38.7847	0.8338
38.7977	0.834
38.8106	0.8341
38.8235	0.8342
38.8365	0.8343