# Wavelength(Î¼m) Extinction_cofficient
0.20664	2.0537
0.20699	2.0572
0.20733	2.0607
0.20768	2.0642
0.20803	2.0677
0.20838	2.0712
0.20873	2.0748
0.20908	2.0783
0.20944	2.0819
0.20979	2.0855
0.21015	2.0891
0.21051	2.0927
0.21087	2.0964
0.21123	2.1001
0.21159	2.1037
0.21195	2.1074
0.21231	2.1112
0.21268	2.1149
0.21304	2.1186
0.21341	2.1224
0.21378	2.1262
0.21415	2.13
0.21452	2.1338
0.21489	2.1377
0.21527	2.1416
0.21564	2.1454
0.21602	2.1493
0.2164	2.1533
0.21678	2.1572
0.21716	2.1612
0.21754	2.1652
0.21792	2.1692
0.21831	2.1732
0.21869	2.1773
0.21908	2.1814
0.21947	2.1855
0.21986	2.1896
0.22025	2.1937
0.22064	2.1979
0.22104	2.2021
0.22143	2.2063
0.22183	2.2105
0.22223	2.2148
0.22263	2.2191
0.22303	2.2234
0.22343	2.2277
0.22384	2.2321
0.22424	2.2365
0.22465	2.2409
0.22506	2.2453
0.22547	2.2498
0.22588	2.2543
0.22629	2.2588
0.22671	2.2634
0.22712	2.268
0.22754	2.2726
0.22796	2.2772
0.22838	2.2819
0.2288	2.2866
0.22923	2.2913
0.22965	2.2961
0.23008	2.3009
0.23051	2.3057
0.23094	2.3106
0.23137	2.3155
0.2318	2.3204
0.23224	2.3254
0.23267	2.3304
0.23311	2.3354
0.23355	2.3405
0.23399	2.3456
0.23444	2.3507
0.23488	2.3559
0.23533	2.3611
0.23578	2.3664
0.23623	2.3717
0.23668	2.377
0.23713	2.3824
0.23759	2.3878
0.23805	2.3932
0.2385	2.3987
0.23897	2.4043
0.23943	2.4099
0.23989	2.4155
0.24036	2.4212
0.24083	2.4269
0.2413	2.4327
0.24177	2.4385
0.24224	2.4444
0.24272	2.4503
0.24319	2.4563
0.24367	2.4623
0.24415	2.4684
0.24463	2.4745
0.24512	2.4807
0.24561	2.4869
0.24609	2.4932
0.24658	2.4996
0.24708	2.506
0.24757	2.5124
0.24807	2.519
0.24857	2.5255
0.24907	2.5322
0.24957	2.5389
0.25007	2.5457
0.25058	2.5525
0.25109	2.5594
0.2516	2.5664
0.25211	2.5735
0.25263	2.5806
0.25314	2.5878
0.25366	2.595
0.25418	2.6024
0.25471	2.6098
0.25523	2.6173
0.25576	2.6248
0.25629	2.6325
0.25682	2.6402
0.25735	2.648
0.25789	2.6559
0.25843	2.6639
0.25897	2.672
0.25951	2.6802
0.26006	2.6884
0.26061	2.6968
0.26116	2.7052
0.26171	2.7138
0.26226	2.7224
0.26282	2.7312
0.26338	2.74
0.26394	2.7489
0.26451	2.758
0.26507	2.7672
0.26564	2.7764
0.26621	2.7858
0.26679	2.7953
0.26736	2.8049
0.26794	2.8146
0.26852	2.8245
0.26911	2.8345
0.2697	2.8446
0.27028	2.8548
0.27088	2.8651
0.27147	2.8756
0.27207	2.8862
0.27267	2.8969
0.27327	2.9078
0.27387	2.9188
0.27448	2.93
0.27509	2.9413
0.2757	2.9527
0.27632	2.9643
0.27694	2.976
0.27756	2.9878
0.27818	2.9999
0.27881	3.012
0.27944	3.0243
0.28007	3.0368
0.28071	3.0494
0.28135	3.0621
0.28199	3.075
0.28263	3.088
0.28328	3.1012
0.28393	3.1145
0.28458	3.128
0.28524	3.1416
0.2859	3.1554
0.28656	3.1692
0.28722	3.1832
0.28789	3.1973
0.28856	3.2116
0.28924	3.2259
0.28992	3.2404
0.2906	3.2549
0.29128	3.2695
0.29197	3.2841
0.29266	3.2989
0.29335	3.3136
0.29405	3.3284
0.29475	3.3432
0.29545	3.3579
0.29616	3.3726
0.29687	3.3872
0.29759	3.4018
0.2983	3.4162
0.29902	3.4304
0.29975	3.4444
0.30048	3.4582
0.30121	3.4716
0.30194	3.4848
0.30268	3.4975
0.30342	3.5098
0.30417	3.5216
0.30492	3.5328
0.30567	3.5434
0.30643	3.5533
0.30719	3.5624
0.30795	3.5706
0.30872	3.5779
0.3095	3.5841
0.31027	3.5892
0.31105	3.5932
0.31184	3.5958
0.31262	3.597
0.31341	3.5968
0.31421	3.595
0.31501	3.5916
0.31581	3.5864
0.31662	3.5795
0.31744	3.5707
0.31825	3.5601
0.31907	3.5475
0.3199	3.533
0.32073	3.5165
0.32156	3.498
0.3224	3.4776
0.32324	3.4553
0.32409	3.4312
0.32494	3.4053
0.32579	3.3777
0.32665	3.3486
0.32752	3.318
0.32839	3.2861
0.32926	3.253
0.33014	3.2189
0.33102	3.1839
0.33191	3.1482
0.3328	3.1119
0.3337	3.0753
0.3346	3.0384
0.33551	3.0014
0.33642	2.9645
0.33734	2.9278
0.33826	2.8915
0.33919	2.8555
0.34012	2.8201
0.34106	2.7854
0.342	2.7514
0.34295	2.7182
0.3439	2.6858
0.34486	2.6544
0.34583	2.6239
0.34679	2.5944
0.34777	2.5659
0.34875	2.5384
0.34973	2.512
0.35073	2.4866
0.35172	2.4622
0.35273	2.4388
0.35373	2.4165
0.35475	2.3952
0.35577	2.3748
0.35679	2.3554
0.35783	2.3369
0.35886	2.3194
0.35991	2.3027
0.36096	2.2868
0.36201	2.2718
0.36308	2.2576
0.36414	2.2441
0.36522	2.2314
0.3663	2.2193
0.36739	2.208
0.36848	2.1973
0.36958	2.1872
0.37069	2.1777
0.3718	2.1688
0.37292	2.1604
0.37405	2.1525
0.37519	2.1451
0.37633	2.1382
0.37747	2.1318
0.37863	2.1257
0.37979	2.1201
0.38096	2.1148
0.38214	2.1099
0.38332	2.1054
0.38451	2.1011
0.38571	2.0972
0.38692	2.0936
0.38813	2.0902
0.38935	2.0871
0.39058	2.0843
0.39182	2.0816
0.39306	2.0792
0.39432	2.077
0.39558	2.075
0.39684	2.0732
0.39812	2.0716
0.39941	2.0701
0.4007	2.0688
0.402	2.0676
0.40331	2.0665
0.40463	2.0656
0.40596	2.0648
0.40729	2.0641
0.40864	2.0635
0.40999	2.063
0.41136	2.0626
0.41273	2.0623
0.41411	2.0621
0.4155	2.0619
0.4169	2.0618
0.41831	2.0618
0.41973	2.0618
0.42116	2.0619
0.4226	2.0621
0.42404	2.0623
0.4255	2.0626
0.42697	2.0629
0.42845	2.0633
0.42994	2.0637
0.43144	2.0642
0.43295	2.0647
0.43447	2.0653
0.436	2.0659
0.43754	2.0665
0.43909	2.0673
0.44066	2.0681
0.44223	2.0689
0.44382	2.0698
0.44541	2.0708
0.44702	2.0719
0.44864	2.0731
0.45028	2.0743
0.45192	2.0757
0.45358	2.0772
0.45525	2.0788
0.45693	2.0805
0.45862	2.0824
0.46033	2.0845
0.46205	2.0867
0.46378	2.0892
0.46552	2.0918
0.46728	2.0947
0.46905	2.0979
0.47084	2.1013
0.47264	2.1051
0.47445	2.1091
0.47627	2.1136
0.47812	2.1184
0.47997	2.1237
0.48184	2.1293
0.48372	2.1355
0.48562	2.142
0.48753	2.1491
0.48946	2.1566
0.49141	2.1646
0.49337	2.173
0.49534	2.1817
0.49733	2.1907
0.49934	2.1999
0.50136	2.209
0.5034	2.2178
0.50546	2.2261
0.50753	2.2334
0.50962	2.2395
0.51173	2.2439
0.51385	2.246
0.516	2.2455
0.51816	2.2418
0.52034	2.2347
0.52253	2.2239
0.52475	2.2093
0.52699	2.191
0.52924	2.1695
0.53151	2.1451
0.53381	2.1184
0.53612	2.0902
0.53845	2.061
0.54081	2.0315
0.54318	2.0023
0.54557	1.9737
0.54799	1.9462
0.55043	1.92
0.55289	1.8953
0.55537	1.8721
0.55787	1.8505
0.5604	1.8306
0.56295	1.8122
0.56552	1.7953
0.56812	1.7799
0.57074	1.7659
0.57338	1.7533
0.57605	1.742
0.57875	1.732
0.58147	1.7234
0.58421	1.716
0.58698	1.71
0.58978	1.7053
0.59261	1.702
0.59546	1.7001
0.59834	1.6998
0.60124	1.701
0.60418	1.7039
0.60715	1.7086
0.61014	1.7151
0.61316	1.7235
0.61622	1.7337
0.6193	1.7458
0.62242	1.7596
0.62556	1.7749
0.62874	1.7911
0.63195	1.8078
0.6352	1.8239
0.63847	1.8385
0.64179	1.85
0.64513	1.857
0.64851	1.8577
0.65193	1.8508
0.65538	1.835
0.65887	1.8098
0.6624	1.775
0.66596	1.7317
0.66957	1.681
0.67321	1.625
0.67689	1.5654
0.68062	1.5042
0.68438	1.4431
0.68819	1.3832
0.69204	1.3256
0.69593	1.2708
0.69987	1.2191
0.70385	1.1707
0.70787	1.1254
0.71195	1.0832
0.71607	1.0439
0.72023	1.0072
0.72445	0.97301
0.72872	0.94101
0.73303	0.91102
0.7374	0.88285
0.74182	0.85632
0.7463	0.83128
0.75083	0.80759
0.75541	0.78512
0.76005	0.76375
0.76475	0.7434
0.7695	0.72397
0.77432	0.70539
0.7792	0.68758
0.78413	0.6705
0.78913	0.65408
0.7942	0.63829
0.79933	0.62307
0.80453	0.60838
0.80979	0.5942
0.81513	0.5805
0.82053	0.56724
0.82601	0.5544
0.83156	0.54196
0.83719	0.52989
0.84289	0.51818
0.84867	0.50681
0.85453	0.49576
0.86047	0.48502
0.8665	0.47458
0.87261	0.46442
0.87881	0.45452
0.88509	0.44489
0.89147	0.4355
0.89794	0.42634
0.9045	0.41742
0.91117	0.40871
0.91792	0.40022
0.92478	0.39193
0.93175	0.38383
0.93882	0.37592
0.946	0.3682
0.95328	0.36064
0.96068	0.35326
0.9682	0.34604
0.97584	0.33898
0.98359	0.33207
0.99148	0.32531
0.99948	0.31869
1.0076	0.3122
1.0159	0.30586
1.0243	0.29964
1.0329	0.29354
1.0416	0.28757
1.0504	0.28172
1.0594	0.27598
1.0685	0.27036
1.0778	0.26484
1.0873	0.25943
1.097	0.25412
1.1068	0.24891
1.1168	0.24381
1.1269	0.2388
1.1373	0.23389
1.1478	0.22908
1.1586	0.22436
1.1695	0.21974
1.1807	0.21522
1.1921	0.21081
1.2037	0.20651
1.2155	0.20233
1.2275	0.19831
1.2398	0.19453

